File: dataset_example/processed_data/ForceRelax_example/data/data_0_single curve_output/GMM Fitting Results/data_0_GMM Fit.csv
Index [#],Phase [#],Displacement [um],Time [s],Pos X [um],Pos Y [um],Pos Z [um],Piezo X [um],Piezo Y [um],Piezo Z [um],Force A [uN],Force B [uN],Gripper [V],Voltage A [V],Voltage B [V],Temperature [oC],Indent Depth [um],Filtered time [uN},Filtered force [uN],SG Force [uN],Est Force 2nd derivative,Filtered displacement [um],Sel Time [s],Sel Force [N],Sel Modulus Uncorrected [Pa],Sel Modulus Corrected [Pa],Sel Modulus GMM Fit [Pa],Sel Time Normalised [s m-2],Sel Force Normalised []
0.0,2.0,0.00827,14551.8,-857.869,-422.194,-27142.802,-0.00028,-0.00056,0.00872,-0.0166,,0.0,-0.00143,-0.00448,22.76728,22.17602,14551.8,0.00246,0.00421025,0.000300193,0.08271,0.015,0.000267192,115683,115683,115608,1606684507186777.5,0.960346
0.0,2.0,0.51022,14551.9,-857.868,-422.196,-27142.802,0.00013,-0.00014,0.51072,0.05657,,0.0,-0.00143,-0.00454,22.76738,22.67797,14551.9,0.08914,0.081532,0.000323634,0.73831,0.07,0.000250943,108648,108648,108317,7497861033083677.0,0.727585
0.0,2.0,1.4767,14551.9,-857.868,-422.196,-27142.8,0.00034,-6e-05,1.47727,0.16673,,0.0,-0.0014,-0.00455,22.76734,23.64445,14552,0.18985,0.197091,0.000272898,1.79096,0.125,0.00023892,103442,103442,103795,1.3389e+16,0.555348
0.0,2.0,2.70787,14552,-857.869,-422.196,-27142.803,-0.0,-0.00014,2.70854,0.30438,,0.0,-0.00134,-0.00454,22.76742,24.87562,14552,0.32905,0.344124,8.85495e-05,3.09121,0.18,0.000232858,100818,100818,100950,1.92802e+16,0.468518
0.0,2.0,4.14153,14552,-857.869,-422.195,-27142.8,-6e-05,-0.00043,4.1423,0.46873,,0.0,-0.0014,-0.00456,22.76746,26.30928,14552.1,0.50689,0.503591,-4.70305e-05,4.53645,0.235,0.000228793,99057.6,99057.6,99122.8,2.51714e+16,0.410282
0.0,2.0,5.58088,14552.1,-857.868,-422.196,-27142.801,0.00015,-7e-05,5.58175,0.62802,,0.0,-0.00145,-0.00454,22.76732,27.74863,14552.1,0.66132,0.659845,2.25032e-05,5.97193,0.29,0.000225868,97791.2,97791.2,97915.7,3.10626e+16,0.368383
0.0,2.0,7.00442,14552.2,-857.868,-422.196,-27142.8,-0.00023,-0.00034,7.00538,0.77408,,0.0,-0.00141,-0.00454,22.76743,29.17216,14552.2,0.8123,0.820061,-7.33136e-05,7.39205,0.345,0.000224484,97192.3,97192.3,97088.3,3.69537e+16,0.348565
0.0,2.0,8.42584,14552.2,-857.869,-422.194,-27142.802,0.00011,0.00014,8.42691,0.93764,,0.0,-0.00142,-0.00455,22.76739,30.59359,14552.2,0.97651,0.97572,4.25633e-05,8.81688,0.4,0.000223228,96648.3,96648.3,96495.3,4.28449e+16,0.330566
0.0,2.0,9.85994,14552.3,-857.868,-422.195,-27142.8,6e-05,-0.00039,9.86111,1.10103,,0.0,-0.00143,-0.00461,22.76748,32.02769,14552.3,1.13425,1.13548,-7.64424e-05,10.25183,0.455,0.000221712,95991.8,95991.8,96048.9,4.87361e+16,0.308847
0.0,2.0,11.28399,14552.3,-857.869,-422.196,-27142.801,0.00015,-0.00046,11.28525,1.23442,,0.0,-0.00141,-0.00457,22.76744,33.45174,14552.3,1.28211,1.2888,-3.36104e-05,11.6713,0.51,0.000221271,95800.9,95800.9,95695.5,5.46273e+16,0.30253
0.0,2.0,12.69487,14552.4,-857.868,-422.196,-27142.8,0.0002,-0.00032,12.69624,1.40573,,0.0,-0.00145,-0.0046,22.76754,34.86262,14552.4,1.44095,1.44003,2.2585e-05,13.07776,0.565,0.000220654,95534,95534,95402.8,6.05184e+16,0.293699
0.0,2.0,14.0929,14552.4,-857.869,-422.196,-27142.802,-6e-05,-2e-05,14.09436,1.54917,,0.0,-0.0013,-0.00456,22.76755,36.26065,14552.4,1.59259,1.59199,-3.07734e-05,14.47471,0.62,0.000219549,95055.4,95055.4,95151,6.64096e+16,0.277866
0.0,2.0,15.48396,14552.5,-857.868,-422.196,-27142.8,0.00028,-0.0002,15.48552,1.69645,,0.0,-0.00145,-0.00465,22.76757,37.65171,14552.5,1.73639,1.74162,-1.01346e-05,15.86497,0.675,0.000219327,94959.2,94959.2,94927.6,7.23008e+16,0.274683
0.0,2.0,16.8732,14552.5,-857.868,-422.196,-27142.802,-7e-05,0.00024,16.87485,1.85186,,0.0,-0.00148,-0.00461,22.76749,39.04095,14552.6,1.89417,1.88903,2.1121e-05,17.25255,0.73,0.000219012,94822.8,94822.8,94725.1,7.8192e+16,0.27017
0.0,2.0,18.25913,14552.6,-857.869,-422.195,-27142.802,8e-05,6e-05,18.26088,1.99159,,0.0,-0.00141,-0.00456,22.76753,40.42688,14552.6,2.04382,2.03708,-2.19645e-05,18.63867,0.785,0.00021808,94419.2,94419.2,94538.7,8.40832e+16,0.256817
0.0,2.0,19.64219,14552.7,-857.868,-422.195,-27142.802,-3e-05,-0.00036,19.64402,2.12815,,0.0,-0.00148,-0.00457,22.76735,41.80994,14552.7,2.17823,2.18128,-3.37641e-05,20.02171,0.84,0.00021794,94358.7,94358.7,94365.1,8.99743e+16,0.254815
0.0,2.0,21.02607,14552.7,-857.868,-422.195,-27142.802,0.0001,9e-05,21.02801,2.28101,,0.0,-0.00148,-0.0046,22.76738,43.19382,14552.7,2.32794,2.32083,3.82611e-05,21.40478,0.895,0.000217768,94284.3,94284.3,94202.4,9.58655e+16,0.252351
0.0,2.0,22.40872,14552.8,-857.868,-422.196,-27142.802,7e-05,0.0001,22.41075,2.4246,,0.0,-0.00145,-0.00454,22.76734,44.57647,14552.8,2.46682,2.46328,-1.08734e-05,22.7878,0.95,0.000216916,93915.4,93915.4,94048.9,1.01757e+17,0.240147
0.0,2.0,23.78872,14552.8,-857.869,-422.196,-27142.8,-0.00015,-0.00073,23.79084,2.57138,,0.0,-0.00148,-0.00459,22.7675,45.95647,14552.8,2.59365,2.55802,0.00359525,24.16752,1.005,0.000216786,93859,93859,93903.7,1.07648e+17,0.238279
0.0,2.0,25.1691,14552.9,-857.868,-422.196,-27142.801,-0.00017,-0.00017,25.17132,2.7348,,0.0,-0.00145,-0.0046,22.76757,47.33685,14552.9,2.94133,3.25247,0.051349,25.54746,1.06,0.000216751,93844.1,93844.1,93766,1.13539e+17,0.237787
0.0,2.0,26.54672,14552.9,-857.869,-422.196,-27142.802,-0.00012,-4e-05,26.55204,7.5517,,0.0,-0.00138,-0.00462,22.76736,48.71446,14552.9,10.21917,10.108,0.0363033,26.92897,1.115,0.000215943,93494,93494,93635,1.1943e+17,0.226203
0.0,2.0,27.92104,14553,-857.868,-422.195,-27142.802,0.00026,-0.00029,27.93324,18.24191,,0.0,-0.00145,-0.00454,22.76757,50.08879,14553,21.53654,21.5383,0.0139786,28.311,1.17,0.000215912,93480.8,93480.8,93510.3,1.25321e+17,0.225768
0.0,2.0,29.29795,14553,-857.868,-422.196,-27142.8,-0.00017,0.0001,29.31826,30.84107,,0.0,-0.00146,-0.00455,22.76747,51.46569,14553.1,34.57945,34.6103,0.00857944,29.69547,1.225,0.000215943,93494.3,93494.3,93391.4,1.31213e+17,0.226215
0.0,2.0,30.67481,14553.1,-857.868,-422.195,-27142.801,-4e-05,-0.00033,30.70418,44.91277,,0.0,-0.00145,-0.00454,22.76758,52.84256,14553.1,48.78269,48.6642,0.00579028,31.08194,1.28,0.000215026,93097,93097,93277.9,1.37104e+17,0.21307
0.0,2.0,32.04959,14553.1,-857.868,-422.195,-27142.801,-0.00012,-0.00021,32.08806,59.05666,,0.0,-0.00141,-0.00457,22.76748,54.21734,14553.2,63.32235,63.4271,0.0066906,32.46613,1.335,0.000215175,93161.5,93161.5,93169.4,1.42995e+17,0.215202
0.0,2.0,33.42563,14553.2,-857.869,-422.195,-27142.801,-0.0002,-0.00028,33.47425,74.83231,,0.0,-0.00147,-0.00458,22.76761,55.59338,14553.2,78.9959,79,-0.00225119,33.85149,1.39,0.000215237,93188.4,93188.4,93065.6,1.48886e+17,0.216093
0.0,2.0,34.80184,14553.3,-857.869,-422.196,-27142.8,-0.00018,6e-05,34.8604,90.26653,,0.0,-0.0015,-0.00458,22.76751,56.96959,14553.3,94.50283,94.335,0.00469574,35.23827,1.445,0.000214327,92794.5,92794.5,92966.2,1.54777e+17,0.203062
0.0,2.0,36.17535,14553.3,-857.869,-422.195,-27142.802,-0.0001,-0.00042,36.2438,105.638,,0.0,-0.0014,-0.00457,22.76763,58.3431,14553.3,110.1124,110.209,0.00342857,36.62222,1.5,0.000214544,92888.4,92888.4,92870.9,1.60668e+17,0.206166
0.0,2.0,37.54998,14553.4,-857.87,-422.196,-27142.8,9e-05,-0.00041,37.62901,122.083,,0.0,-0.00143,-0.00458,22.76752,59.71773,14553.4,126.466,126.526,0.0021533,38.00622,1.555,0.00021462,92921.3,92921.3,92779.4,1.6656e+17,0.207257
0.0,2.0,38.92504,14553.4,-857.869,-422.196,-27142.802,-0.00022,-0.00041,39.01478,138.726,,0.0,-0.00143,-0.0046,22.76767,61.09279,14553.4,143.373,143.117,0.00493431,39.39224,1.61,0.00021374,92540.4,92540.4,92691.6,1.72451e+17,0.194655
0.0,2.0,40.29679,14553.5,-857.869,-422.196,-27142.801,-0.00056,-0.00022,40.3972,155.306,,0.0,-0.00145,-0.0046,22.76762,62.46454,14553.5,160.121,160.25,0.00215786,40.77512,1.665,0.000214008,92656.2,92656.2,92607.1,1.78342e+17,0.198485
0.0,2.0,41.67035,14553.5,-857.868,-422.196,-27142.801,5e-05,-0.00027,41.78204,172.844,,0.0,-0.00144,-0.00457,22.76763,63.83809,14553.5,177.478,177.642,0.00185421,42.15932,1.72,0.00021403,92666,92666,92525.8,1.84233e+17,0.198809
0.0,2.0,43.04432,14553.6,-857.868,-422.195,-27142.802,0.00026,0.00035,43.16751,190.715,,0.0,-0.00147,-0.00457,22.76754,65.21207,14553.6,195.638,195.283,0.00605691,43.54497,1.775,0.0002131513,92285.5,92285.5,92447.5,1.90124e+17,0.18622
0.0,2.0,44.41484,14553.6,-857.869,-422.196,-27142.801,-0.00025,-9e-05,44.54931,208.229,,0.0,-0.00143,-0.00456,22.76763,66.58259,14553.7,213.471,213.582,0.00398563,44.92745,1.83,0.000213449,92414.4,92414.4,92372,1.96016e+17,0.190486
0.0,2.0,45.78717,14553.7,-857.868,-422.196,-27142.801,5e-05,-2e-05,45.93382,227.154,,0.0,-0.00149,-0.00462,22.76771,67.95492,14553.7,232.203,232.414,0.00690951,46.31107,1.885,0.000213439,92410.2,92410.2,92299.1,2.01907e+17,0.190347
0.0,2.0,47.15975,14553.8,-857.869,-422.196,-27142.801,0.00044,-5e-05,47.31915,246.976,,0.0,-0.00147,-0.00457,22.76747,69.3275,14553.8,252.4903,252.152,0.00276451,47.69662,1.94,0.000212608,92050.3,92050.3,92228.7,2.07798e+17,0.178437
0.0,2.0,48.53014,14553.8,-857.869,-422.196,-27142.8,-0.00028,-0.00051,48.70217,266.601,,0.0,-0.0015,-0.00461,22.76763,70.69789,14553.8,272.4191,272.248,0.00276451,49.08009,1.995,0.000212987,92214.4,92214.4,92160.6,2.13689e+17,0.183869
0.0,3.0,49.59236,14553.9,-857.869,-422.196,-27142.801,0.00024,-8e-05,49.76425,266.386,,0.0,-0.00146,-0.0046,22.76755,71.76011,,,,,,2.05,0.00021302,92228.6,92228.6,92094.7,2.1958e+17,0.184337
0.0,3.0,49.97893,14553.9,-857.869,-422.196,-27142.8,1e-05,-0.00025,50.1409,250.9714,,0.0,-0.00149,-0.00456,22.7676,72.14667,,,,,,2.105,0.000212228,91885.9,91885.9,92030.8,2.25471e+17,0.172999
0.0,3.0,50.09029,14554,-857.868,-422.195,-27142.801,-5e-05,-0.00021,50.24545,240.386,,0.0,-0.00149,-0.00457,22.76767,72.25803,,,,,,2.16,0.000212504,92005,92005,91968.9,2.31363e+17,0.176941
0.0,3.0,50.10919,14554,-857.868,-422.195,-27142.8,0.00023,1e-05,50.2609,235.0243,,0.0,-0.00142,-0.0045,22.76775,72.27693,,,,,,2.215,0.000212556,92027.8,92027.8,91908.8,2.37254e+17,0.177693
0.0,3.0,50.09938,14554.1,-857.868,-422.195,-27142.802,0.00021,0.00013,50.24895,231.7,,0.0,-0.00143,-0.00454,22.76771,72.26713,,,,,,2.27,0.000211882,91735.9,91735.9,91850.5,2.43145e+17,0.168036
0.0,3.0,50.0821,14554.1,-857.869,-422.196,-27142.801,0.0003,-0.00024,50.2299,228.949,,0.0,-0.00147,-0.00453,22.76757,72.24985,,,,,,2.325,0.000212151,91852.3,91852.3,91793.7,2.49036e+17,0.171887
0.0,3.0,50.06708,14554.2,-857.869,-422.196,-27142.8,-6e-05,0.00052,50.214,227.585,,0.0,-0.00141,-0.00453,22.76776,72.23483,,,,,,2.38,0.000212128,91842.4,91842.4,91738.5,2.54927e+17,0.171558
0.0,3.0,50.05584,14554.2,-857.867,-422.196,-27142.8,-0.00025,6e-05,50.20215,226.635,,0.0,-0.00149,-0.00454,22.76757,72.22359,,,,,,2.435,0.000211522,91579.9,91579.9,91684.7,2.60818e+17,0.162876
0.0,3.0,50.04566,14554.3,-857.869,-422.196,-27142.801,0.00011,-3e-05,50.19101,225.153,,0.0,-0.00147,-0.00454,22.76765,72.21341,,,,,,2.49,0.000211751,91679.4,91679.4,91632.3,2.6671e+17,0.166167
0.0,3.0,50.03863,14554.4,-857.868,-422.196,-27142.8,0.00014,-8e-05,50.18359,224.5322,,0.0,-0.00147,-0.00452,22.7677,72.20638,,,,,,2.545,0.000211763,91684.5,91684.5,91581.2,2.72601e+17,0.166335
0.0,3.0,50.03402,14554.4,-857.869,-422.196,-27142.8,-0.00012,0.00023,50.17874,224.17,,0.0,-0.00144,-0.00455,22.7677,72.20177,,,,,,2.6,0.000211127,91409.2,91409.2,91531.3,2.78492e+17,0.157226
0.0,3.0,50.02892,14554.5,-857.868,-422.196,-27142.8,3e-05,-0.00056,50.17294,223.064,,0.0,-0.00143,-0.00456,22.76762,72.19667,,,,,,2.655,0.000211324,91494.5,91494.5,91482.6,2.84383e+17,0.160048
0.0,3.0,50.02593,14554.5,-857.869,-422.197,-27142.801,-0.00018,-5e-05,50.16967,222.645,,0.0,-0.00147,-0.00453,22.76788,72.19368,,,,,,2.71,0.000211447,91547.7,91547.7,91434.9,2.90274e+17,0.161809
0.0,3.0,50.0242,14554.6,-857.869,-422.196,-27142.8,-0.00026,0.00016,50.16788,222.551,,0.0,-0.00144,-0.00454,22.76781,72.19194,,,,,,2.765,0.000210886,91304.7,91304.7,91388.3,2.96166e+17,0.153771
0.0,3.0,50.02156,14554.6,-857.869,-422.196,-27142.801,0.00015,8e-05,50.16468,221.669,,0.0,-0.00147,-0.00454,22.76776,72.18931,,,,,,2.82,0.000210928,91322.8,91322.8,91342.7,3.02057e+17,0.154368
0.0,3.0,50.01967,14554.7,-857.869,-422.194,-27142.802,-0.00012,8e-05,50.16255,221.296,,0.0,-0.00143,-0.00452,22.76767,72.18742,,,,,,2.875,0.000211111,91401.9,91401.9,91298,3.07948e+17,0.156986
0.0,3.0,50.01908,14554.7,-857.869,-422.196,-27142.801,-0.00029,0.00032,50.16197,221.318,,0.0,-0.00147,-0.00451,22.76774,72.18683,,,,,,2.93,0.0002106,91180.7,91180.7,91254.2,3.13839e+17,0.149667
0.0,3.0,50.01726,14554.8,-857.869,-422.195,-27142.8,-1e-05,-0.00047,50.15963,220.512,,0.0,-0.00146,-0.00452,22.76775,72.185,,,,,,2.985,0.000210632,91194.8,91194.8,91211.3,3.1973e+17,0.150133
0.0,3.0,50.01589,14554.9,-857.869,-422.196,-27142.801,0.00028,-7e-05,50.15802,220.129,,0.0,-0.00143,-0.00457,22.76773,72.18364,,,,,,3.04,0.000210893,91307.8,91307.8,91169.2,3.25621e+17,0.153871
0.0,3.0,50.01589,14554.9,-857.869,-422.195,-27142.801,4e-05,0.00027,50.15809,220.261,,0.0,-0.00146,-0.00451,22.7677,72.18363,,,,,,3.095,0.000210368,91080.5,91080.5,91127.8,3.31513e+17,0.146353
0.0,3.0,50.01466,14555,-857.868,-422.197,-27142.8,2e-05,3e-05,50.15643,219.579,,0.0,-0.00141,-0.00451,22.76774,72.18241,,,,,,3.15,0.000210237,91023.7,91023.7,91087.1,3.37404e+17,0.144473
0.0,3.0,50.01368,14555,-857.869,-422.195,-27142.802,5e-05,-0.00023,50.15525,219.279,,0.0,-0.00146,-0.00448,22.76769,72.18143,,,,,,3.205,0.000210611,91185.5,91185.5,91047.2,3.43295e+17,0.149826
0.0,3.0,50.0139,14555.1,-857.869,-422.196,-27142.802,-0.00014,0.00022,50.1556,219.4742,,0.0,-0.0015,-0.00449,22.76783,72.18164,,,,,,3.26,0.000210025,90931.7,90931.7,91007.9,3.49186e+17,0.141429
0.0,3.0,50.0126,14555.1,-857.869,-422.196,-27142.8,2e-05,-0.00023,50.15381,218.712,,0.0,-0.00146,-0.0045,22.76772,72.18035,,,,,,3.315,0.000209989,90916.3,90916.3,90969.3,3.55077e+17,0.140921
0.0,3.0,50.01181,14555.2,-857.868,-422.196,-27142.801,0.00031,0.00012,50.15289,218.517,,0.0,-0.00146,-0.00452,22.76776,72.17955,,,,,,3.37,0.000210385,91087.7,91087.7,90931.3,3.60968e+17,0.14659
0.0,3.0,50.01233,14555.2,-857.869,-422.196,-27142.801,-0.00011,0.00024,50.15361,218.819,,0.0,-0.00148,-0.00449,22.76774,72.18008,,,,,,3.425,0.000209745,90810.6,90810.6,90893.8,3.6686e+17,0.137421
0.0,3.0,50.011,14555.3,-857.869,-422.196,-27142.802,-4e-05,-0.00013,50.15179,218.0539,,0.0,-0.00146,-0.0045,22.76786,72.17875,,,,,,3.48,0.000209741,90808.8,90808.8,90856.9,3.72751e+17,0.137363
0.0,3.0,50.01035,14555.3,-857.868,-422.195,-27142.8,-0.00014,-0.00043,50.15104,217.899,,0.0,-0.00143,-0.00453,22.76781,72.1781,,,,,,3.535,0.000210124,90974.7,90974.7,90820.6,3.78642e+17,0.142852
0.0,3.0,50.01107,14555.4,-857.868,-422.196,-27142.8,0.00026,9e-05,50.15196,218.217,,0.0,-0.00146,-0.00452,22.76768,72.17882,,,,,,3.59,0.0002093992,90661,90661,90784.8,3.84533e+17,0.132471
0.0,3.0,50.00977,14555.5,-857.868,-422.196,-27142.8,-0.0004,-9e-05,50.15014,217.413,,0.0,-0.00143,-0.00454,22.76779,72.17751,,,,,,3.645,0.000209469,90691.1,90691.1,90749.5,3.90424e+17,0.133468
0.0,3.0,50.0094,14555.5,-857.869,-422.195,-27142.802,-0.00017,-5e-05,50.14971,217.317,,0.0,-0.00146,-0.00452,22.76785,72.17714,,,,,,3.7,0.000209924,90888,90888,90714.6,3.96316e+17,0.139984
0.0,3.0,50.01004,14555.6,-857.869,-422.196,-27142.8,0.0002,0.00038,50.15057,217.652,,0.0,-0.00145,-0.00454,22.7678,72.17779,,,,,,3.755,0.000209155,90555.2,90555.2,90680.2,4.02207e+17,0.128971
0.0,3.0,50.00884,14555.6,-857.869,-422.195,-27142.801,-0.00025,0.00032,50.14883,216.808,,0.0,-0.00145,-0.00454,22.76774,72.17659,,,,,,3.81,0.000209244,90593.7,90593.7,90646.3,4.08098e+17,0.130244
0.0,3.0,50.00835,14555.7,-857.869,-422.196,-27142.801,-0.00013,-5e-05,50.14833,216.7934,,0.0,-0.00144,-0.00453,22.76779,72.1761,,,,,,3.865,0.000209651,90769.9,90769.9,90612.8,4.13989e+17,0.136075
0.0,3.0,50.00919,14555.7,-857.869,-422.195,-27142.801,0.00041,0.00019,50.14937,217.104,,0.0,-0.00147,-0.00455,22.76785,72.17694,,,,,,3.92,0.000208955,90468.8,90468.8,90579.7,4.1988e+17,0.126112
0.0,3.0,50.00789,14555.8,-857.868,-422.196,-27142.8,-0.0003,-0.00023,50.14753,216.266,,0.0,-0.00151,-0.00456,22.76802,72.17564,,,,,,3.975,0.000208998,90487.2,90487.2,90547,4.25771e+17,0.126721
0.0,3.0,50.0074,14555.8,-857.868,-422.195,-27142.802,-9e-05,-0.00027,50.14705,216.285,,0.0,-0.00146,-0.00454,22.76797,72.17515,,,,,,4.03,0.000209432,90675.1,90675.1,90514.7,4.31663e+17,0.132939
0.0,3.0,50.00815,14555.9,-857.868,-422.197,-27142.8,0.00028,-0.00046,50.14799,216.588,,0.0,-0.00148,-0.00453,22.76788,72.17589,,,,,,4.085,0.000208837,90417.8,90417.8,90482.8,4.37554e+17,0.124425
0.0,3.0,50.00737,14556,-857.869,-422.196,-27142.801,-6e-05,-0.00026,50.14677,215.9,,0.0,-0.00147,-0.00453,22.76793,72.17512,,,,,,4.14,0.000208775,90390.7,90390.7,90451.2,4.43445e+17,0.12353
0.0,3.0,50.00698,14556,-857.869,-422.196,-27142.8,-9e-05,7e-05,50.14634,215.835,,0.0,-0.00144,-0.00454,22.76797,72.17473,,,,,,4.195,0.000209083,90524,90524,90420,4.49336e+17,0.127938
0.0,3.0,50.00778,14556.1,-857.869,-422.195,-27142.801,0.00031,0.0002,50.14735,216.16,,0.0,-0.00142,-0.00456,22.7679,72.17552,,,,,,4.25,0.000208679,90349.2,90349.2,90389.2,4.55227e+17,0.122156
0.0,3.0,50.00687,14556.1,-857.868,-422.195,-27142.8,-0.00017,1e-05,50.14606,215.567,,0.0,-0.00145,-0.00454,22.76786,72.17462,,,,,,4.305,0.000208507,90274.6,90274.6,90358.7,4.61118e+17,0.119687
0.0,3.0,50.00663,14556.2,-857.869,-422.195,-27142.8,-0.0,8e-05,50.14579,215.516,,0.0,-0.00143,-0.00447,22.7679,72.17438,,,,,,4.36,0.0002088285,90413.9,90413.9,90328.5,4.6701e+17,0.124296
0.0,3.0,50.00721,14556.2,-857.869,-422.196,-27142.801,-0.00023,4e-05,50.1465,215.725,,0.0,-0.00148,-0.00453,22.7679,72.17495,,,,,,4.415,0.000208508,90275.2,90275.2,90298.6,4.72901e+17,0.119707
0.0,3.0,50.00639,14556.3,-857.868,-422.196,-27142.801,-1e-05,0.0,50.14531,215.156,,0.0,-0.00144,-0.00455,22.76786,72.17413,,,,,,4.47,0.0002083,90185.3,90185.3,90269,4.78792e+17,0.116732
0.0,3.0,50.00612,14556.3,-857.868,-422.195,-27142.801,-6e-05,0.00049,50.14502,215.1184,,0.0,-0.00147,-0.00453,22.76804,72.17387,,,,,,4.525,0.000208565,90300,90300,90239.8,4.84683e+17,0.120527
0.0,3.0,50.00694,14556.4,-857.869,-422.195,-27142.801,-0.00011,-1e-05,50.14603,215.4201,,0.0,-0.00142,-0.00452,22.768,72.17469,,,,,,4.58,0.000208371,90216,90216,90210.8,4.90574e+17,0.117749
0.0,3.0,50.0059,14556.4,-857.869,-422.196,-27142.8,2e-05,-0.00046,50.1446,214.811,,0.0,-0.00142,-0.00449,22.76785,72.17364,,,,,,4.635,0.000208055,90079,90079,90182.1,4.96466e+17,0.113216
0.0,3.0,50.00568,14556.5,-857.869,-422.195,-27142.802,6e-05,-0.00017,50.1443,214.684,,0.0,-0.00145,-0.00445,22.76797,72.17343,,,,,,4.69,0.000208439,90245.3,90245.3,90153.7,5.02357e+17,0.118719
0.0,3.0,50.00642,14556.6,-857.868,-422.195,-27142.8,-0.0001,0.00035,50.14527,215.04,,0.0,-0.00141,-0.0045,22.76794,72.17417,,,,,,4.745,0.000208183,90134.6,90134.6,90125.6,5.08248e+17,0.115056
0.0,3.0,50.00585,14556.6,-857.867,-422.194,-27142.801,-0.00021,2e-05,50.14439,214.56,,0.0,-0.00143,-0.0045,22.768,72.1736,,,,,,4.8,0.000207862,89995.5,89995.5,90097.8,5.14139e+17,0.110452
0.0,3.0,50.00523,14556.7,-857.869,-422.195,-27142.801,0.00017,0.00013,50.14364,214.355,,0.0,-0.0014,-0.00456,22.7679,72.17298,,,,,,4.855,0.000208293,90182.2,90182.2,90070.2,5.2003e+17,0.116631
0.0,3.0,50.00597,14556.7,-857.869,-422.196,-27142.801,0.00012,0.00033,50.14461,214.718,,0.0,-0.0015,-0.00454,22.76794,72.17372,,,,,,4.91,0.000207978,90045.8,90045.8,90042.9,5.25921e+17,0.112118
0.0,3.0,50.00545,14556.8,-857.869,-422.196,-27142.8,-0.00026,-0.00016,50.1438,214.274,,0.0,-0.00145,-0.00454,22.76791,72.17319,,,,,,4.965,0.00020764,89899.4,89899.4,90015.8,5.31813e+17,0.107275
0.0,3.0,50.00493,14556.8,-857.869,-422.196,-27142.801,0.00015,-0.0004,50.1431,213.984,,0.0,-0.00141,-0.00454,22.76805,72.17268,,,,,,5.02,0.000208129,90111.1,90111.1,89989,5.37704e+17,0.114278
0.0,3.0,50.00577,14556.9,-857.869,-422.195,-27142.801,-0.00028,9e-05,50.14423,214.438,,0.0,-0.00148,-0.00453,22.76784,72.17351,,,,,,5.075,0.000207751,89947.2,89947.2,89962.4,5.43595e+17,0.108855
0.0,3.0,50.00538,14556.9,-857.869,-422.195,-27142.802,7e-05,8e-05,50.14362,214.104,,0.0,-0.00142,-0.00449,22.76785,72.17312,,,,,,5.13,0.0002074498,89817,89817,89936.1,5.49486e+17,0.104547
0.0,3.0,50.00431,14557,-857.868,-422.195,-27142.801,-0.0,-4e-05,50.14225,213.629,,0.0,-0.00145,-0.00448,22.76799,72.17206,,,,,,5.185,0.000207983,90047.8,90047.8,89910,5.55377e+17,0.112185
0.0,3.0,50.00559,14557.1,-857.869,-422.195,-27142.801,-0.00029,0.00035,50.14386,214.143,,0.0,-0.00143,-0.00446,22.76776,72.17333,,,,,,5.24,0.0002074646,89823.4,89823.4,89884.1,5.61268e+17,0.104759
0.0,3.0,50.0051,14557.1,-857.869,-422.194,-27142.8,1e-05,-0.0,50.14316,213.8152,,0.0,-0.00142,-0.0045,22.76793,72.17285,,,,,,5.295,0.00020727,89739,89739,89858.5,5.6716e+17,0.101966
0.0,3.0,50.00415,14557.2,-857.868,-422.196,-27142.801,0.00018,-0.00014,50.14192,213.358,,0.0,-0.00144,-0.00449,22.7679,72.1719,,,,,,5.35,0.000207856,89993,89993,89833.1,5.73051e+17,0.110371
0.0,3.0,50.00516,14557.2,-857.869,-422.196,-27142.8,-7e-05,0.00033,50.14326,213.8881,,0.0,-0.00149,-0.00449,22.76812,72.1729,,,,,,5.405,0.000207384,89788.4,89788.4,89807.9,5.78942e+17,0.1036
0.0,3.0,50.00467,14557.3,-857.869,-422.196,-27142.8,-5e-05,0.00011,50.14252,213.4894,,0.0,-0.00146,-0.00448,22.76798,72.17242,,,,,,5.46,0.000207064,89650.1,89650.1,89782.9,5.84833e+17,0.0990268
0.0,3.0,50.00398,14557.3,-857.869,-422.196,-27142.802,-0.00037,-0.00026,50.14159,213.109,,0.0,-0.00146,-0.00447,22.76813,72.17173,,,,,,5.515,0.000207676,89915,89915,89758.2,5.90724e+17,0.10779
0.0,3.0,50.00501,14557.4,-857.869,-422.196,-27142.8,0.00011,-0.0,50.14297,213.67,,0.0,-0.00144,-0.00448,22.76804,72.17275,,,,,,5.57,0.000207216,89715.6,89715.6,89733.6,5.96616e+17,0.101192
0.0,3.0,50.00458,14557.4,-857.868,-422.195,-27142.801,-0.00049,-0.00026,50.14224,213.193,,0.0,-0.00148,-0.00449,22.76809,72.17233,,,,,,5.625,0.000206858,89560.8,89560.8,89709.3,6.02507e+17,0.0960699
0.0,3.0,50.00368,14557.5,-857.868,-422.196,-27142.801,-0.00022,-0.00032,50.14111,212.833,,0.0,-0.00141,-0.00446,22.76804,72.17143,,,,,,5.68,0.000207451,89817.4,89817.4,89685.2,6.08398e+17,0.104561
0.0,3.0,50.00491,14557.5,-857.868,-422.195,-27142.801,0.00016,-0.00018,50.14274,213.473,,0.0,-0.00144,-0.00454,22.76801,72.17265,,,,,,5.735,0.000207064,89649.9,89649.9,89661.3,6.14289e+17,0.0990193
0.0,3.0,50.00438,14557.6,-857.869,-422.196,-27142.801,-7e-05,-0.00011,50.14188,212.942,,0.0,-0.00141,-0.00449,22.76808,72.17213,,,,,,5.79,0.000206717,89499.9,89499.9,89637.5,6.2018e+17,0.0940547
0.0,3.0,50.00356,14557.7,-857.869,-422.196,-27142.8,-0.00013,-5e-05,50.14085,212.6178,,0.0,-0.00143,-0.00448,22.76804,72.1713,,,,,,5.845,0.000207308,89755.4,89755.4,89614,6.26071e+17,0.102508
0.0,3.0,50.00482,14557.7,-857.867,-422.195,-27142.8,0.00024,0.00032,50.14251,213.243,,0.0,-0.00145,-0.0045,22.76803,72.17256,,,,,,5.9,0.000206839,89552.4,89552.4,89590.7,6.31963e+17,0.0957917
0.0,3.0,50.00405,14557.8,-857.868,-422.196,-27142.801,-0.00037,-0.00012,50.14138,212.682,,0.0,-0.00144,-0.00451,22.76811,72.1718,,,,,,5.955,0.000206646,89468.8,89468.8,89567.6,6.37854e+17,0.0930256
0.0,3.0,50.00354,14557.8,-857.868,-422.195,-27142.801,-4e-05,-0.00014,50.14068,212.397,,0.0,-0.00143,-0.00449,22.76808,72.17128,,,,,,6.01,0.000207166,89694.3,89694.3,89544.6,6.43745e+17,0.100486
0.0,3.0,50.00466,14557.9,-857.869,-422.196,-27142.8,0.00053,0.00013,50.14216,212.949,,0.0,-0.00143,-0.00448,22.76799,72.1724,,,,,,6.065,0.000206582,89441.3,89441.3,89521.9,6.49636e+17,0.0921186
0.0,3.0,50.00428,14557.9,-857.869,-422.196,-27142.802,-1e-05,6e-05,50.14155,212.595,,0.0,-0.00145,-0.00448,22.76825,72.17202,,,,,,6.12,0.000206557,89430.3,89430.3,89499.3,6.55527e+17,0.0917536
0.0,3.0,50.00372,14558,-857.869,-422.196,-27142.8,-0.00022,-0.00026,50.14077,212.244,,0.0,-0.00151,-0.00449,22.76822,72.17147,,,,,,6.175,0.000206982,89614.3,89614.3,89477,6.61418e+17,0.0978403
0.0,3.0,50.00432,14558,-857.869,-422.194,-27142.802,1e-05,0.00061,50.14163,212.6509,,0.0,-0.00145,-0.00448,22.76823,72.17207,,,,,,6.23,0.000206481,89397.4,89397.4,89454.8,6.6731e+17,0.090664
0.0,3.0,50.0042,14558.1,-857.869,-422.195,-27142.802,-0.00041,-0.0002,50.14135,212.4,,0.0,-0.0015,-0.00448,22.76815,72.17195,,,,,,6.285,0.000206436,89377.9,89377.9,89432.8,6.73201e+17,0.0900191
0.0,3.0,50.0034,14558.2,-857.869,-422.195,-27142.802,0.00026,0.00017,50.14029,211.999,,0.0,-0.00149,-0.00448,22.76792,72.17115,,,,,,6.34,0.000206782,89527.9,89527.9,89410.9,6.79092e+17,0.0949815
0.0,3.0,50.00394,14558.2,-857.869,-422.196,-27142.802,-0.00044,-0.00011,50.14106,212.354,,0.0,-0.00144,-0.00447,22.76802,72.17168,,,,,,6.395,0.000206346,89339.1,89339.1,89389.3,6.84983e+17,0.088737
0.0,3.0,50.00403,14558.3,-857.869,-422.196,-27142.802,-7e-05,6e-05,50.14107,212.235,,0.0,-0.00145,-0.00451,22.76832,72.17178,,,,,,6.45,0.000206271,89306.7,89306.7,89367.8,6.90874e+17,0.0876643
0.0,3.0,50.00312,14558.3,-857.869,-422.196,-27142.802,-0.0001,-0.00044,50.13986,211.762,,0.0,-0.0015,-0.00452,22.76813,72.17086,,,,,,6.505,0.0002066,89448.9,89448.9,89346.5,6.96766e+17,0.0923695
0.0,3.0,50.00367,14558.4,-857.87,-422.196,-27142.803,-0.00029,0.00045,50.14061,212.064,,0.0,-0.00145,-0.00452,22.76816,72.17142,,,,,,6.56,0.000206232,89289.5,89289.5,89325.4,7.02657e+17,0.087095
0.0,3.0,50.00388,14558.4,-857.869,-422.196,-27142.802,9e-05,-0.00023,50.14081,212.066,,0.0,-0.00143,-0.00456,22.76812,72.17163,,,,,,6.615,0.000206015,89195.8,89195.8,89304.4,7.08548e+17,0.0839935
0.0,3.0,50.00291,14558.5,-857.87,-422.195,-27142.802,-8e-05,-0.0,50.13952,211.567,,0.0,-0.00137,-0.00453,22.76817,72.17066,,,,,,6.67,0.000206456,89386.9,89386.9,89283.6,7.14439e+17,0.0903166
0.0,3.0,50.00352,14558.5,-857.869,-422.196,-27142.8,9e-05,0.00042,50.14036,211.924,,0.0,-0.00144,-0.00454,22.76807,72.17126,,,,,,6.725,0.000206177,89266.1,89266.1,89263,7.2033e+17,0.0863196
0.0,3.0,50.0038,14558.6,-857.868,-422.197,-27142.801,0.0001,-0.00015,50.14063,211.91,,0.0,-0.00143,-0.00452,22.76813,72.17155,,,,,,6.78,0.000205837,89118.6,89118.6,89242.5,7.26221e+17,0.0814414
0.0,3.0,50.003,14558.6,-857.869,-422.195,-27142.802,4e-05,-0.00044,50.13951,211.404,,0.0,-0.00146,-0.00456,22.76835,72.17075,,,,,,6.835,0.0002062894,89314.6,89314.6,89222.3,7.32113e+17,0.0879241
0.0,3.0,50.00349,14558.7,-857.869,-422.196,-27142.802,0.00016,0.0003,50.14023,211.773,,0.0,-0.0015,-0.00453,22.76823,72.17123,,,,,,6.89,0.000206169,89262.3,89262.3,89202.1,7.38004e+17,0.086194
0.0,3.0,50.0038,14558.8,-857.869,-422.195,-27142.8,-6e-05,-0.0002,50.14052,211.729,,0.0,-0.00148,-0.00453,22.76842,72.17155,,,,,,6.945,0.000205665,89044.4,89044.4,89182.2,7.43895e+17,0.0789853
0.0,3.0,50.00273,14558.8,-857.869,-422.196,-27142.801,-0.00014,-0.00056,50.13909,211.161,,0.0,-0.00148,-0.00457,22.76821,72.17048,,,,,,7.0,0.000206151,89254.8,89254.8,89162.3,7.49786e+17,0.0859471
0.0,3.0,50.00353,14558.9,-857.869,-422.196,-27142.8,1e-05,0.00021,50.14016,211.5846,,0.0,-0.00155,-0.0045,22.76814,72.17128,,,,,,7.055,0.000206127,89244.1,89244.1,89142.7,7.55677e+17,0.0855937
0.0,3.0,50.00356,14558.9,-857.869,-422.196,-27142.8,-2e-05,3e-05,50.14011,211.465,,0.0,-0.00152,-0.00454,22.76817,72.17131,,,,,,7.11,0.0002054846,88966.1,88966.1,89123.2,7.61568e+17,0.0763955
0.0,3.0,50.0027,14559,-857.868,-422.196,-27142.801,7e-05,-0.00014,50.13895,211,,0.0,-0.00146,-0.00452,22.76811,72.17045,,,,,,7.165,0.000206,89189.3,89189.3,89103.8,7.6746e+17,0.0837797
0.0,3.0,50.00357,14559,-857.868,-422.196,-27142.801,-0.0001,0.00048,50.14014,211.503,,0.0,-0.00147,-0.00454,22.76826,72.17132,,,,,,7.22,0.000205948,89166.8,89166.8,89084.7,7.73351e+17,0.0830355
0.0,3.0,50.00338,14559.1,-857.868,-422.195,-27142.801,-0.00024,0.00017,50.1398,211.264,,0.0,-0.00145,-0.00452,22.76856,72.17113,,,,,,7.275,0.000205359,88911.7,88911.7,89065.6,7.79242e+17,0.0745954
0.0,3.0,50.0025,14559.1,-857.869,-422.195,-27142.801,0.00011,-0.00022,50.1386,210.77,,0.0,-0.00148,-0.0045,22.76807,72.17025,,,,,,7.33,0.00020591,89150.2,89150.2,89046.7,7.85133e+17,0.0824851
0.0,3.0,50.00345,14559.2,-857.868,-422.196,-27142.801,-1e-05,5e-05,50.13991,211.332,,0.0,-0.0015,-0.00452,22.76846,72.1712,,,,,,7.385,0.000205756,89083.5,89083.5,89028,7.91024e+17,0.0802792
0.0,3.0,50.00354,14559.3,-857.869,-422.195,-27142.802,0.00013,9e-05,50.13987,211.134,,0.0,-0.00145,-0.00455,22.76823,72.17129,,,,,,7.44,0.0002052484,88863.9,88863.9,89009.4,7.96916e+17,0.073012
0.0,3.0,50.00241,14559.3,-857.868,-422.196,-27142.801,-0.00014,-0.00011,50.13838,210.572,,0.0,-0.0015,-0.00455,22.76815,72.17016,,,,,,7.495,0.000205854,89125.9,89125.9,88991,8.02807e+17,0.0816822
0.0,3.0,50.00326,14559.4,-857.868,-422.195,-27142.8,0.00051,-7e-05,50.13962,211.17,,0.0,-0.00143,-0.00452,22.76823,72.17101,,,,,,7.55,0.000205597,89015,89015,88972.7,8.08698e+17,0.0780112
0.0,3.0,50.00347,14559.4,-857.869,-422.195,-27142.8,-0.00022,0.00044,50.13974,211.029,,0.0,-0.00144,-0.00456,22.76831,72.17122,,,,,,7.605,0.000205087,88794.1,88794.1,88954.5,8.14589e+17,0.0707051
0.0,3.0,50.00234,14559.5,-857.869,-422.195,-27142.8,-3e-05,-7e-05,50.13819,210.38,,0.0,-0.00146,-0.00451,22.76816,72.17009,,,,,,7.66,0.000205633,89030.5,89030.5,88936.5,8.2048e+17,0.0785253
0.0,3.0,50.00312,14559.5,-857.869,-422.196,-27142.8,0.00027,-3e-05,50.13932,210.939,,0.0,-0.00141,-0.00455,22.7683,72.17086,,,,,,7.715,0.000205525,88983.5,88983.5,88918.7,8.26371e+17,0.0769689
0.0,3.0,50.00346,14559.6,-857.869,-422.196,-27142.801,-0.00012,0.00012,50.13963,210.88,,0.0,-0.00145,-0.00458,22.76837,72.17121,,,,,,7.77,0.000205012,88761.4,88761.4,88900.9,8.32263e+17,0.0696214
0.0,3.0,50.00225,14559.6,-857.869,-422.196,-27142.8,-0.0005,-6e-05,50.13802,210.267,,0.0,-0.00146,-0.00457,22.76825,72.16999,,,,,,7.825,0.000205476,88962.4,88962.4,88883.4,8.38154e+17,0.0762719
0.0,3.0,50.00314,14559.7,-857.869,-422.195,-27142.8,-5e-05,-0.00041,50.13925,210.773,,0.0,-0.00143,-0.00456,22.76824,72.17089,,,,,,7.88,0.000205412,88934.8,88934.8,88865.9,8.44045e+17,0.0753601
0.0,3.0,50.00312,14559.7,-857.87,-422.194,-27142.8,0.00021,-0.00013,50.13908,210.554,,0.0,-0.00142,-0.00458,22.76815,72.17087,,,,,,7.935,0.000204856,88693.8,88693.8,88848.6,8.49936e+17,0.067384
0.0,3.0,50.00217,14559.8,-857.868,-422.196,-27142.8,-0.00013,7e-05,50.13787,210.145,,0.0,-0.00142,-0.00454,22.76835,72.16992,,,,,,7.99,0.00020539,88925,88925,88831.4,8.55827e+17,0.0750362
0.0,3.0,50.00322,14559.9,-857.868,-422.195,-27142.8,0.00052,8e-05,50.13927,210.695,,0.0,-0.00146,-0.00462,22.76821,72.17096,,,,,,8.045,0.000205323,88896,88896,88814.4,8.61718e+17,0.0740762
0.0,3.0,50.00295,14559.9,-857.869,-422.195,-27142.8,-0.00038,-0.00042,50.13877,210.34,,0.0,-0.00146,-0.00454,22.76831,72.17069,,,,,,8.1,0.000204781,88661.4,88661.4,88797.5,8.6761e+17,0.0663124
0.0,3.0,50.00223,14560,-857.869,-422.196,-27142.8,0.00017,0.00022,50.13785,210.024,,0.0,-0.00145,-0.00458,22.76829,72.16998,,,,,,8.155,0.000205258,88868.1,88868.1,88780.7,8.73501e+17,0.0731528
0.0,3.0,50.00322,14560,-857.869,-422.196,-27142.8,2e-05,0.00017,50.13916,210.526,,0.0,-0.0015,-0.00451,22.76841,72.17097,,,,,,8.21,0.000205225,88853.9,88853.9,88764.1,8.79392e+17,0.0726835
0.0,3.0,50.00282,14560.1,-857.869,-422.195,-27142.8,-3e-05,-0.00031,50.13856,210.202,,0.0,-0.00147,-0.00456,22.76819,72.17057,,,,,,8.265,0.00020475,88647.9,88647.9,88747.6,8.85283e+17,0.0658665
0.0,3.0,50.00222,14560.1,-857.869,-422.195,-27142.8,-1e-05,-0.00012,50.13779,209.945,,0.0,-0.00146,-0.00454,22.76841,72.16997,,,,,,8.32,0.000205063,88783.7,88783.7,88731.2,8.91174e+17,0.070361
0.0,3.0,50.00286,14560.2,-857.868,-422.197,-27142.8,-0.00013,0.00026,50.13866,210.305,,0.0,-0.00148,-0.00455,22.76831,72.17061,,,,,,8.375,0.000205164,88827.3,88827.3,88715,8.97066e+17,0.0718008
0.0,3.0,50.00267,14560.2,-857.868,-422.195,-27142.802,-0.00017,-0.00057,50.13833,210.077,,0.0,-0.00147,-0.00456,22.76843,72.17042,,,,,,8.43,0.000204612,88588.2,88588.2,88698.9,9.02957e+17,0.0638916
0.0,3.0,50.0022,14560.3,-857.869,-422.195,-27142.799,0.00042,-0.00041,50.13767,209.787,,0.0,-0.00145,-0.00457,22.7683,72.16995,,,,,,8.485,0.000204792,88666.3,88666.3,88682.9,9.08848e+17,0.0664743
0.0,3.0,50.00279,14560.4,-857.869,-422.195,-27142.8,-0.00013,0.00028,50.13848,210.131,,0.0,-0.00148,-0.00451,22.76843,72.17054,,,,,,8.54,0.000205056,88780.5,88780.5,88667,9.14739e+17,0.070255
0.0,3.0,50.00277,14560.4,-857.868,-422.195,-27142.799,0.00025,0.00023,50.13837,209.99,,0.0,-0.00144,-0.00456,22.7683,72.17052,,,,,,8.595,0.00020457,88570.2,88570.2,88651.3,9.2063e+17,0.0632952
0.0,3.0,50.00202,14560.5,-857.869,-422.196,-27142.8,7e-05,5e-05,50.13735,209.571,,0.0,-0.00143,-0.00457,22.76822,72.16976,,,,,,8.65,0.00020473,88639.5,88639.5,88635.7,9.26521e+17,0.065588
0.0,3.0,50.00253,14560.5,-857.869,-422.196,-27142.8,-7e-05,0.00042,50.13807,209.894,,0.0,-0.00143,-0.00454,22.76859,72.17028,,,,,,8.705,0.000205001,88756.7,88756.7,88620.2,9.32413e+17,0.0694682
0.0,3.0,50.00283,14560.6,-857.869,-422.196,-27142.8,-0.00011,0.00012,50.13838,209.916,,0.0,-0.00143,-0.00458,22.76853,72.17058,,,,,,8.76,0.000204409,88500.4,88500.4,88604.8,9.38304e+17,0.060987
0.0,3.0,50.00216,14560.6,-857.868,-422.195,-27142.8,0.00046,-0.00027,50.13742,209.469,,0.0,-0.00146,-0.00456,22.76834,72.1699,,,,,,8.815,0.000204576,88572.5,88572.5,88589.5,9.44195e+17,0.0633731
0.0,3.0,50.00248,14560.7,-857.869,-422.195,-27142.8,-0.0001,0.00015,50.13793,209.751,,0.0,-0.00146,-0.00454,22.76834,72.17023,,,,,,8.87,0.000204846,88689.5,88689.5,88574.4,9.50086e+17,0.0672447
0.0,3.0,50.00305,14560.7,-857.868,-422.195,-27142.801,-0.00022,0.00015,50.13859,209.892,,0.0,-0.00142,-0.00453,22.76842,72.1708,,,,,,8.925,0.000204327,88464.9,88464.9,88559.4,9.55977e+17,0.0598126
0.0,3.0,50.00205,14560.8,-857.868,-422.196,-27142.8,0.00021,-0.00032,50.1372,209.296,,0.0,-0.00135,-0.00456,22.76833,72.16979,,,,,,8.98,0.000204495,88537.6,88537.6,88544.5,9.61868e+17,0.0622165
0.0,3.0,50.00232,14560.8,-857.869,-422.195,-27142.8,-0.00016,9e-05,50.13762,209.521,,0.0,-0.00144,-0.00454,22.76833,72.17007,,,,,,9.035,0.0002048327,88683.9,88683.9,88529.7,9.6776e+17,0.0670571
0.0,3.0,50.00313,14560.9,-857.869,-422.195,-27142.8,0.00012,0.00045,50.13864,209.846,,0.0,-0.00144,-0.00455,22.76841,72.17088,,,,,,9.09,0.000204157,88391.4,88391.4,88515,9.73651e+17,0.0573803
0.0,3.0,50.00205,14561,-857.869,-422.195,-27142.8,0.00014,-0.00015,50.13711,209.152,,0.0,-0.00144,-0.00461,22.76848,72.16979,,,,,,9.145,0.000204302,88454,88454,88500.5,9.79542e+17,0.0594498
0.0,3.0,50.00211,14561,-857.869,-422.196,-27142.8,-4e-05,-0.00012,50.13731,209.36,,0.0,-0.00144,-0.00455,22.76866,72.16986,,,,,,9.2,0.000204727,88638,88638,88486.1,9.85433e+17,0.065538
0.0,3.0,50.00295,14561.1,-857.869,-422.196,-27142.8,-0.0002,0.00017,50.13833,209.652,,0.0,-0.00144,-0.00454,22.76852,72.17069,,,,,,9.255,0.000204042,88341.3,88341.3,88471.7,9.91324e+17,0.0557239
0.0,3.0,50.00184,14561.1,-857.868,-422.197,-27142.8,-0.00014,-0.00018,50.1368,209.003,,0.0,-0.00145,-0.00455,22.76853,72.16959,,,,,,9.31,0.000204268,88439.5,88439.5,88457.5,9.97216e+17,0.0589712
0.0,3.0,50.00221,14561.2,-857.869,-422.196,-27142.8,8e-05,3e-05,50.13737,209.311,,0.0,-0.00144,-0.00459,22.76853,72.16996,,,,,,9.365,0.000204626,88594.2,88594.2,88443.4,1.00311e+18,0.0640912
0.0,3.0,50.00282,14561.2,-857.869,-422.196,-27142.799,-0.0002,0.00036,50.13809,209.479,,0.0,-0.00141,-0.00459,22.76856,72.17057,,,,,,9.42,0.000203924,88290.6,88290.6,88429.4,1.009e+18,0.0540456
0.0,3.0,50.0016,14561.3,-857.869,-422.195,-27142.8,-2e-05,-0.00013,50.13641,208.766,,0.0,-0.00147,-0.00457,22.7684,72.16935,,,,,,9.475,0.000204236,88425.7,88425.7,88415.6,1.01489e+18,0.0585148
0.0,3.0,50.002,14561.3,-857.868,-422.194,-27142.8,8e-05,-0.00022,50.13708,209.195,,0.0,-0.00145,-0.00458,22.76859,72.16974,,,,,,,,,,,,
0.0,3.0,50.00284,14561.4,-857.868,-422.195,-27142.8,3e-05,0.00025,50.13805,209.3835,,0.0,-0.00137,-0.00454,22.76847,72.17059,,,,,,,,,,,,
0.0,3.0,50.00165,14561.5,-857.868,-422.197,-27142.8,-4e-05,0.0002,50.13639,208.658,,0.0,-0.00146,-0.0046,22.76851,72.1694,,,,,,,,,,,,
0.0,3.0,50.00211,14561.5,-857.869,-422.196,-27142.8,0.00012,2e-05,50.13707,208.991,,0.0,-0.00142,-0.00452,22.76849,72.16986,,,,,,,,,,,,
0.0,3.0,50.00272,14561.6,-857.869,-422.195,-27142.799,-3e-05,0.00021,50.13786,209.264,,0.0,-0.00143,-0.00455,22.76859,72.17047,,,,,,,,,,,,
0.0,3.0,50.00172,14561.6,-857.869,-422.196,-27142.8,-0.00053,-9e-05,50.13645,208.628,,0.0,-0.00149,-0.00459,22.76848,72.16947,,,,,,,,,,,,
0.0,3.0,50.00198,14561.7,-857.869,-422.194,-27142.8,0.00032,3e-05,50.13685,208.865,,0.0,-0.00146,-0.00458,22.76867,72.16973,,,,,,,,,,,,
0.0,3.0,50.0027,14561.7,-857.868,-422.195,-27142.8,0.00047,-0.00015,50.13776,209.157,,0.0,-0.00145,-0.00458,22.76851,72.17044,,,,,,,,,,,,
0.0,3.0,50.00171,14561.8,-857.869,-422.197,-27142.8,-0.00016,0.00012,50.13634,208.48,,0.0,-0.00147,-0.00456,22.7685,72.16946,,,,,,,,,,,,
0.0,3.0,50.00168,14561.8,-857.869,-422.194,-27142.8,7e-05,0.00012,50.13646,208.717,,0.0,-0.00152,-0.00453,22.76884,72.16942,,,,,,,,,,,,
0.0,3.0,50.00267,14561.9,-857.868,-422.195,-27142.8,0.0002,1e-05,50.13766,209.052,,0.0,-0.00149,-0.00459,22.76852,72.17042,,,,,,,,,,,,
0.0,3.0,50.00162,14561.9,-857.869,-422.196,-27142.8,-0.00017,-0.00027,50.13622,208.432,,0.0,-0.00149,-0.00455,22.76856,72.16937,,,,,,,,,,,,
0.0,3.0,50.00201,14562,-857.869,-422.196,-27142.801,5e-05,0.00058,50.13674,208.635,,0.0,-0.00144,-0.00457,22.76854,72.16976,,,,,,,,,,,,
0.0,3.0,50.0026,14562.1,-857.869,-422.196,-27142.8,-0.00014,-0.00031,50.1375,208.893,,0.0,-0.00146,-0.0046,22.76861,72.17035,,,,,,,,,,,,
0.0,3.0,50.00175,14562.1,-857.868,-422.195,-27142.8,-0.00014,-0.00057,50.1363,208.373,,0.0,-0.00144,-0.00456,22.76866,72.16949,,,,,,,,,,,,
0.0,3.0,50.00167,14562.2,-857.869,-422.196,-27142.8,8e-05,-7e-05,50.13627,208.429,,0.0,-0.0014,-0.00454,22.76861,72.16942,,,,,,,,,,,,
0.0,3.0,50.00256,14562.2,-857.869,-422.195,-27142.8,0.00017,-8e-05,50.1374,208.808,,0.0,-0.00145,-0.00454,22.76872,72.1703,,,,,,,,,,,,
0.0,3.0,50.00195,14562.3,-857.868,-422.196,-27142.8,-6e-05,-0.00063,50.13648,208.325,,0.0,-0.00155,-0.00456,22.76843,72.1697,,,,,,,,,,,,
0.0,3.0,50.00149,14562.3,-857.868,-422.195,-27142.8,-0.00019,0.00013,50.13591,208.153,,0.0,-0.00146,-0.00454,22.76863,72.16924,,,,,,,,,,,,
0.0,3.0,50.00251,14562.4,-857.868,-422.195,-27142.8,1e-05,3e-05,50.13724,208.632,,0.0,-0.0015,-0.00453,22.76866,72.17026,,,,,,,,,,,,
0.0,3.0,50.00198,14562.4,-857.869,-422.196,-27142.8,3e-05,-5e-05,50.13645,208.2429,,0.0,-0.0015,-0.00454,22.76864,72.16972,,,,,,,,,,,,
0.0,3.0,50.00146,14562.5,-857.868,-422.196,-27142.8,-9e-05,0.00018,50.13583,208.083,,0.0,-0.00141,-0.00461,22.76871,72.16921,,,,,,,,,,,,
0.0,3.0,50.00262,14562.6,-857.869,-422.196,-27142.801,0.00017,0.00027,50.13733,208.615,,0.0,-0.00144,-0.00455,22.7687,72.17037,,,,,,,,,,,,
0.0,3.0,50.00176,14562.6,-857.869,-422.195,-27142.8,0.00032,-0.00043,50.13615,208.116,,0.0,-0.00145,-0.00457,22.76865,72.1695,,,,,,,,,,,,
0.0,3.0,50.00144,14562.7,-857.869,-422.196,-27142.8,-0.00035,-0.0003,50.13574,207.9732,,0.0,-0.00148,-0.00457,22.76851,72.16919,,,,,,,,,,,,
0.0,3.0,50.00239,14562.7,-857.869,-422.196,-27142.8,0.00015,0.00033,50.137,208.456,,0.0,-0.00149,-0.00458,22.76871,72.17014,,,,,,,,,,,,
0.0,3.0,50.0017,14562.8,-857.869,-422.196,-27142.8,0.00025,-0.00012,50.13602,207.996,,0.0,-0.00143,-0.00454,22.76869,72.16945,,,,,,,,,,,,
0.0,3.0,50.00137,14562.8,-857.868,-422.196,-27142.8,-8e-05,-0.00018,50.13558,207.835,,0.0,-0.00144,-0.00453,22.76868,72.16911,,,,,,,,,,,,
0.0,3.0,50.00252,14562.9,-857.869,-422.196,-27142.8,-0.00033,-0.00014,50.13712,208.439,,0.0,-0.00142,-0.00453,22.76862,72.17026,,,,,,,,,,,,
0.0,3.0,50.00184,14562.9,-857.868,-422.196,-27142.801,0.00011,-0.00014,50.13609,207.895,,0.0,-0.00142,-0.00455,22.76879,72.16959,,,,,,,,,,,,
0.0,3.0,50.00128,14563,-857.869,-422.196,-27142.8,-0.00015,-0.00021,50.13541,207.699,,0.0,-0.00147,-0.00457,22.76872,72.16903,,,,,,,,,,,,
0.0,3.0,50.00244,14563,-857.869,-422.195,-27142.8,-0.00011,0.0002,50.13699,208.351,,0.0,-0.00144,-0.00458,22.76875,72.17019,,,,,,,,,,,,
0.0,3.0,50.00175,14563.1,-857.869,-422.196,-27142.8,-0.0,-0.0003,50.13594,207.803,,0.0,-0.00144,-0.00455,22.76877,72.1695,,,,,,,,,,,,
0.0,3.0,50.00127,14563.2,-857.869,-422.196,-27142.8,0.00013,-5e-05,50.13537,207.665,,0.0,-0.00145,-0.00452,22.76867,72.16902,,,,,,,,,,,,
0.0,3.0,50.00247,14563.2,-857.869,-422.196,-27142.8,-5e-05,0.00037,50.13694,208.243,,0.0,-0.00146,-0.00456,22.76889,72.17021,,,,,,,,,,,,
0.0,3.0,50.00153,14563.3,-857.869,-422.196,-27142.8,-0.00034,-0.00013,50.1356,207.6172,,0.0,-0.00148,-0.00458,22.76871,72.16928,,,,,,,,,,,,
0.0,3.0,50.0013,14563.3,-857.869,-422.195,-27142.8,4e-05,-0.00021,50.13536,207.6,,0.0,-0.0014,-0.00456,22.76877,72.16904,,,,,,,,,,,,
0.0,3.0,50.00254,14563.4,-857.868,-422.196,-27142.8,-7e-05,0.00014,50.13695,208.151,,0.0,-0.00149,-0.00456,22.76874,72.17028,,,,,,,,,,,,
0.0,3.0,50.00149,14563.4,-857.869,-422.196,-27142.801,-0.00033,-4e-05,50.13548,207.49,,0.0,-0.00144,-0.00451,22.76876,72.16924,,,,,,,,,,,,
0.0,3.0,50.00126,14563.5,-857.869,-422.195,-27142.8,-2e-05,-2e-05,50.13529,207.549,,0.0,-0.00145,-0.00452,22.76889,72.169,,,,,,,,,,,,
0.0,3.0,50.00234,14563.5,-857.869,-422.195,-27142.8,0.00049,-0.00019,50.13668,208.044,,0.0,-0.00142,-0.00452,22.76874,72.17008,,,,,,,,,,,,
0.0,3.0,50.0017,14563.6,-857.869,-422.195,-27142.8,-0.00041,-0.00046,50.13564,207.416,,0.0,-0.00146,-0.0046,22.76883,72.16945,,,,,,,,,,,,
0.0,3.0,50.00142,14563.7,-857.868,-422.195,-27142.8,-0.00015,-0.00027,50.13539,207.468,,0.0,-0.00146,-0.00453,22.76881,72.16917,,,,,,,,,,,,
0.0,3.0,50.00224,14563.7,-857.869,-422.195,-27142.8,-1e-05,-0.00025,50.13649,207.893,,0.0,-0.00145,-0.00457,22.76888,72.16999,,,,,,,,,,,,
0.0,3.0,50.0014,14563.8,-857.869,-422.195,-27142.799,-0.00027,0.00011,50.13526,207.281,,0.0,-0.00144,-0.00453,22.76884,72.16915,,,,,,,,,,,,
0.0,3.0,50.00138,14563.8,-857.867,-422.196,-27142.8,-0.00019,0.00052,50.13532,207.408,,0.0,-0.00145,-0.00451,22.76879,72.16913,,,,,,,,,,,,
0.0,4.0,49.68898,14563.9,-857.868,-422.196,-27142.8,0.00047,0.00055,49.80769,183.755,,0.0,-0.00143,-0.00453,22.76888,71.85673,,,,,,,,,,,,
0.0,4.0,48.86419,14563.9,-857.87,-422.196,-27142.8,-0.00011,3e-05,48.95691,143.366,,0.0,-0.00141,-0.00453,22.76884,71.03194,,,,,,,,,,,,
0.0,4.0,47.72464,14564,-857.869,-422.196,-27142.8,4e-05,0.00011,47.79385,106.82,,0.0,-0.00142,-0.00451,22.76864,69.89239,,,,,,,,,,,,
0.0,4.0,46.41076,14564,-857.868,-422.196,-27142.8,-0.00013,-6e-05,46.46332,80.95869,,0.0,-0.0015,-0.00451,22.76881,68.57851,,,,,,,,,,,,
0.0,4.0,45.01171,14564.1,-857.869,-422.195,-27142.799,0.00029,-0.00046,45.05376,64.62585,,0.0,-0.00149,-0.00452,22.76899,67.17945,,,,,,,,,,,,
0.0,4.0,43.58039,14564.1,-857.868,-422.196,-27142.8,0.00016,0.00066,43.61598,54.57966,,0.0,-0.00145,-0.00454,22.76906,65.74814,,,,,,,,,,,,
0.0,4.0,42.14316,14564.2,-857.869,-422.196,-27142.799,-0.00025,0.00023,42.17421,47.52188,,0.0,-0.00145,-0.00457,22.76893,64.31091,,,,,,,,,,,,
0.0,4.0,40.70707,14564.3,-857.869,-422.196,-27142.8,0.00023,0.00012,40.73402,41.15289,,0.0,-0.00145,-0.00455,22.7689,62.87482,,,,,,,,,,,,
0.0,4.0,39.27671,14564.3,-857.868,-422.196,-27142.8,0.00027,0.00055,39.30013,35.66798,,0.0,-0.00145,-0.00455,22.76889,61.44446,,,,,,,,,,,,
0.0,4.0,37.85401,14564.4,-857.868,-422.196,-27142.8,-0.00037,0.0006,37.87449,31.09872,,0.0,-0.00148,-0.0046,22.76882,60.02176,,,,,,,,,,,,
0.0,4.0,36.43497,14564.4,-857.869,-422.195,-27142.799,0.00047,-0.00011,36.45242,26.39853,,0.0,-0.00146,-0.00456,22.76895,58.60272,,,,,,,,,,,,
0.0,4.0,35.01986,14564.5,-857.869,-422.195,-27142.8,-0.0001,0.00016,35.03442,21.90277,,0.0,-0.00148,-0.00458,22.76903,57.18761,,,,,,,,,,,,
0.0,4.0,33.61049,14564.5,-857.869,-422.196,-27142.8,-0.00021,0.00034,33.62242,17.81593,,0.0,-0.00146,-0.00453,22.76895,55.77824,,,,,,,,,,,,
0.0,4.0,32.20308,14564.6,-857.868,-422.195,-27142.8,0.00024,0.00021,32.21222,13.49224,,0.0,-0.00149,-0.00452,22.76904,54.37082,,,,,,,,,,,,
0.0,4.0,30.79684,14564.6,-857.869,-422.196,-27142.799,0.00019,0.00051,30.80342,9.50558,,0.0,-0.0015,-0.00453,22.76894,52.96459,,,,,,,,,,,,
0.0,4.0,29.39545,14564.7,-857.869,-422.196,-27142.8,-0.0001,0.00047,29.39973,5.93348,,0.0,-0.00146,-0.00451,22.76893,51.5632,,,,,,,,,,,,
0.0,4.0,27.99441,14564.8,-857.869,-422.196,-27142.799,-2e-05,0.00024,27.99618,2.03175,,0.0,-0.00148,-0.00455,22.76896,50.16216,,,,,,,,,,,,
0.0,4.0,26.59284,14564.8,-857.869,-422.195,-27142.8,0.00028,4e-05,26.59281,-0.76848,,0.0,-0.00148,-0.00456,22.76903,48.76059,,,,,,,,,,,,
0.0,4.0,25.19526,14564.9,-857.869,-422.196,-27142.799,0.00011,0.00053,25.19518,-0.84349,,0.0,-0.0015,-0.00452,22.76912,47.36301,,,,,,,,,,,,
0.0,4.0,23.79699,14564.9,-857.869,-422.196,-27142.8,4e-05,0.00015,23.79682,-0.98556,,0.0,-0.00146,-0.00449,22.76896,45.96474,,,,,,,,,,,,
0.0,4.0,22.4008,14565,-857.869,-422.196,-27142.8,0.00023,-0.00031,22.40053,-1.14836,,0.0,-0.00153,-0.00448,22.76904,44.56855,,,,,,,,,,,,
0.0,4.0,21.00753,14565,-857.868,-422.196,-27142.8,1e-05,0.00031,21.00716,-1.29713,,0.0,-0.00149,-0.00455,22.76877,43.17528,,,,,,,,,,,,
0.0,4.0,19.61349,14565.1,-857.869,-422.196,-27142.8,-0.00023,0.00048,19.61302,-1.45133,,0.0,-0.00147,-0.00453,22.76888,41.78124,,,,,,,,,,,,
0.0,4.0,18.21957,14565.1,-857.867,-422.196,-27142.8,-0.00029,-0.0001,18.219,-1.60279,,0.0,-0.00153,-0.00454,22.769,40.38732,,,,,,,,,,,,
0.0,4.0,16.82944,14565.2,-857.868,-422.195,-27142.799,0.00018,0.00044,16.82878,-1.75576,,0.0,-0.00152,-0.00454,22.76887,38.99719,,,,,,,,,,,,
0.0,4.0,15.43826,14565.2,-857.869,-422.196,-27142.799,-0.00025,0.00071,15.43749,-1.92374,,0.0,-0.00154,-0.00452,22.76896,37.60601,,,,,,,,,,,,
0.0,4.0,14.04705,14565.3,-857.868,-422.196,-27142.8,-5e-05,0.00029,14.04619,-2.07267,,0.0,-0.00151,-0.00454,22.769,36.2148,,,,,,,,,,,,
0.0,4.0,12.65952,14565.4,-857.869,-422.196,-27142.8,0.00028,0.00021,12.65857,-2.20415,,0.0,-0.00148,-0.00449,22.76905,34.82727,,,,,,,,,,,,
0.0,4.0,11.27004,14565.4,-857.868,-422.196,-27142.799,-0.00026,0.00043,11.26898,-2.37476,,0.0,-0.00146,-0.00454,22.7691,33.43779,,,,,,,,,,,,
0.0,4.0,9.88186,14565.5,-857.868,-422.195,-27142.8,-0.00012,-0.00021,9.8807,-2.52033,,0.0,-0.00146,-0.00451,22.7689,32.0496,,,,,,,,,,,,
0.0,4.0,8.49705,14565.5,-857.868,-422.195,-27142.799,4e-05,0.00028,8.49581,-2.65654,,0.0,-0.00147,-0.00452,22.76914,30.6648,,,,,,,,,,,,
0.0,4.0,7.11073,14565.6,-857.868,-422.195,-27142.8,0.00012,0.00017,7.10938,-2.82044,,0.0,-0.0015,-0.00452,22.76894,29.27848,,,,,,,,,,,,
0.0,4.0,5.72558,14565.6,-857.868,-422.194,-27142.799,-5e-05,0.00034,5.72414,-2.96684,,0.0,-0.00146,-0.00454,22.76915,27.89333,,,,,,,,,,,,
0.0,4.0,4.34388,14565.7,-857.868,-422.196,-27142.8,0.00012,-0.0001,4.34235,-3.10369,,0.0,-0.00149,-0.00457,22.76899,26.51163,,,,,,,,,,,,
0.0,4.0,2.96082,14565.7,-857.869,-422.196,-27142.799,1e-05,0.00038,2.95918,-3.26157,,0.0,-0.00151,-0.00452,22.76893,25.12857,,,,,,,,,,,,
0.0,4.0,1.57986,14565.8,-857.868,-422.195,-27142.8,-0.00014,0.00036,1.57812,-3.41952,,0.0,-0.00148,-0.00452,22.76908,23.7476,,,,,,,,,,,,
0.0,4.0,0.40372,14565.9,-857.869,-422.195,-27142.799,-0.00023,0.00039,0.40191,-3.53832,,0.0,-0.00152,-0.00455,22.76906,22.57147,,,,,,,,,,,,
0.0,4.0,0.23586,14565.9,-857.869,-422.196,-27142.8,-2e-05,0.00026,0.23404,-3.55478,,0.0,-0.00148,-0.00452,22.76913,22.40361,,,,,,,,,,,,