File: dataset_example/processed_data/ForceRelax_example/data/data_1_Measurements/GMM Fitting Results/data_1_1_GMM Fit.csv
Index [#],Phase [#],Displacement [um],Time [s],Pos X [um],Pos Y [um],Pos Z [um],Piezo X [um],Piezo Y [um],Piezo Z [um],Force A [uN],Force B [uN],Gripper [V],Voltage A [V],Voltage B [V],Temperature [oC],Sample Displacement [um],Filtered time [uN},Filtered force [uN],SG Force [uN],Est Force 2nd derivative,Filtered displacement [um],Sel Time [s],Sel Force [N],Sel Modulus Uncorrected [Pa],Sel Modulus Corrected [Pa],Sel Modulus GMM Fit [Pa],Sel Time Normalised [s m-2],Sel Force Normalised []
0.0,2.0,0.00921,15411.086,-1357.907,-922.162,-27138,-0.0,0.00021,0.00888,-0.03091,,0.0,-0.00157,-0.00453,22.86596,21.46908,15411.086,-0.03091,-0.0384997,0.000356521,0.00888,0.0,0.000306324,140103,140103,141681,0.0,1.0
0.0,2.0,0.50586,15411.141,-1357.91,-922.163,-27138,-7e-05,0.0,0.50556,0.01737,,0.0,-0.00148,-0.00453,22.86625,21.96573,15411.141,0.01737,0.0256078,0.000356521,0.50556,0.055,0.000293364,134176,134176,133559,6338191744103496.0,0.826305
0.0,2.0,1.4672,15411.196,-1357.906,-922.162,-27138.038,-4e-05,-0.00023,1.46698,0.13541,,0.0,-0.00153,-0.0045,22.86627,22.92707,15411.196,0.13541,0.132661,0.000240495,1.46698,0.11,0.0002798842,128011,128011,128238,1.26764e+16,0.645636
0.0,2.0,2.68581,15411.251,-1357.906,-922.163,-27138.038,0.00029,-0.00017,2.68568,0.27136,,0.0,-0.00151,-0.00454,22.86608,24.14569,15411.251,0.27136,0.266631,0.000154333,2.68568,0.165,0.000272306,124545,124545,124712,1.90146e+16,0.544063
0.0,2.0,4.07444,15411.306,-1357.907,-922.162,-27138.038,5e-05,-0.00048,4.0744,0.41027,,0.0,-0.00151,-0.00454,22.86603,25.53432,15411.306,0.41027,0.417848,-7.28315e-06,4.0744,0.22,0.000267606,122395,122395,122339,2.53528e+16,0.481069
0.0,2.0,5.50717,15411.361,-1357.907,-922.163,-27138.038,0.00019,2e-05,5.50723,0.57376,,0.0,-0.00158,-0.0045,22.86615,26.96704,15411.361,0.57376,0.571614,-3.67622e-05,5.50723,0.275,0.000263563,120546,120546,120707,3.1691e+16,0.426888
0.0,2.0,6.94065,15411.416,-1357.907,-922.162,-27138,0.00025,-0.00058,6.9408,0.7154,,0.0,-0.00153,-0.00454,22.86606,28.40052,15411.416,0.7154,0.721916,3.41618e-05,6.9408,0.33,0.000261585,119641,119641,119554,3.80292e+16,0.400368
0.0,2.0,8.36649,15411.471,-1357.91,-922.161,-27138.038,3e-05,-4e-05,8.36674,0.86695,,0.0,-0.00151,-0.0045,22.86625,29.82636,15411.471,0.86695,0.874845,2.78804e-05,8.36674,0.385,0.000259839,118843,118843,118712,4.43673e+16,0.376969
0.0,2.0,9.7875,15411.526,-1357.907,-922.162,-27138.039,0.00017,-0.00018,9.78785,1.03175,,0.0,-0.0015,-0.00451,22.86616,31.24737,15411.526,1.03175,1.0312,-1.80525e-05,9.78785,0.44,0.000257987,117996,117996,118073,5.07055e+16,0.352154
0.0,2.0,11.19994,15411.581,-1357.91,-922.162,-27138.038,0.00081,-9e-05,11.2004,1.19138,,0.0,-0.00152,-0.00455,22.86621,32.65981,15411.581,1.19138,1.18347,2.71303e-05,11.2004,0.495,0.000257377,117716,117716,117568,5.70437e+16,0.343969
0.0,2.0,12.60483,15411.636,-1357.907,-922.162,-27138.039,0.00044,-0.00031,12.60538,1.33986,,0.0,-0.00155,-0.00453,22.86641,34.0647,15411.636,1.33986,1.33399,4.26257e-05,12.60538,0.55,0.000256435,117286,117286,117153,6.33819e+16,0.331347
0.0,2.0,14.00699,15411.691,-1357.91,-922.162,-27138.038,7e-05,0.00024,14.00765,1.49309,,0.0,-0.00149,-0.00453,22.86622,35.46687,15411.691,1.49309,1.48438,1.64204e-05,14.00765,0.605,0.000255122,116685,116685,116800,6.97201e+16,0.313749
0.0,2.0,15.40356,15411.746,-1357.91,-922.162,-27138.038,-0.0001,-0.00038,15.4043,1.63494,,0.0,-0.00152,-0.00457,22.86612,36.86343,15411.746,1.63494,1.63471,-4.29701e-05,15.4043,0.66,0.000254945,116604,116604,116489,7.60583e+16,0.31138
0.0,2.0,16.79683,15411.801,-1357.91,-922.162,-27138.039,9e-05,-0.00045,16.79767,1.78332,,0.0,-0.00145,-0.00454,22.86613,38.25671,15411.801,1.78332,1.77899,2.72149e-05,16.79767,0.715,0.000254319,116318,116318,116209,8.23965e+16,0.302988
0.0,2.0,18.19008,15411.856,-1357.91,-922.163,-27138.039,-0.00035,4e-05,18.19101,1.92314,,0.0,-0.00141,-0.00452,22.86616,39.64995,15411.856,1.92314,1.92557,2.96282e-05,18.19101,0.77,0.000253301,115852,115852,115952,8.87347e+16,0.289342
0.0,2.0,19.57829,15411.911,-1357.91,-922.162,-27138,-0.00047,-0.00059,19.57932,2.07429,,0.0,-0.00141,-0.00446,22.86621,41.03817,15411.911,2.07429,2.07582,-7.76889e-05,19.57932,0.825,0.000253141,115779,115779,115713,9.50729e+16,0.287199
0.0,2.0,20.96545,15411.966,-1357.907,-922.162,-27138.039,-3e-05,-0.00054,20.96658,2.22662,,0.0,-0.00145,-0.00452,22.86602,42.42533,15411.966,2.22662,2.21818,2.78178e-06,20.96658,0.88,0.000252735,115593,115593,115489,1.01411e+17,0.281759
0.0,2.0,22.35286,15412.021,-1357.907,-922.162,-27138,8e-05,0.00013,22.35406,2.35852,,0.0,-0.00144,-0.0045,22.86632,43.81273,15412.021,2.35852,2.36013,5.08247e-05,22.35406,0.935,0.000251823,115176,115176,115276,1.07749e+17,0.269537
0.0,2.0,23.7371,15412.076,-1357.907,-922.163,-27138.039,-0.0001,0.00037,23.7384,2.49784,,0.0,-0.00149,-0.0045,22.86616,45.19697,15412.076,2.49784,2.5062,-6.09901e-05,23.7384,0.99,0.000251504,115031,115031,115074,1.14087e+17,0.265265
0.0,2.0,25.11973,15412.131,-1357.907,-922.163,-27138,0.00022,-0.00049,25.12112,2.64289,,0.0,-0.0015,-0.00454,22.86633,46.5796,15412.131,2.64289,2.50851,0.0113196,25.12112,1.045,0.000251317,114945,114945,114881,1.20426e+17,0.262751
0.0,2.0,26.50219,15412.186,-1357.91,-922.163,-27138,2e-05,-0.00022,26.5043,3.75274,,0.0,-0.0015,-0.00455,22.86618,47.96207,15412.186,3.75274,4.13407,0.0699274,26.5043,1.1,0.00025056,114599,114599,114696,1.26764e+17,0.252611
0.0,2.0,27.87834,15412.241,-1357.907,-922.162,-27138,-5e-05,-0.0003,27.88711,14.11741,,0.0,-0.00157,-0.00456,22.86626,49.33821,15412.241,14.11741,14.0993,0.0397622,27.88711,1.155,0.000250227,114447,114447,114519,1.33102e+17,0.248148
0.0,2.0,29.25477,15412.296,-1357.91,-922.162,-27138.04,-6e-05,-0.00022,29.27321,29.14728,,0.0,-0.00159,-0.00453,22.86641,50.71464,15412.296,29.14728,29.2704,0.0141594,29.27321,1.21,0.000250038,114360,114360,114349,1.3944e+17,0.245613
0.0,2.0,30.63336,15412.351,-1357.91,-922.163,-27138,0.00023,-0.00063,30.66274,46.13904,,0.0,-0.00149,-0.00457,22.86625,52.09323,15412.351,46.13904,46.0755,0.00257486,30.66274,1.265,0.000249333,114037,114037,114185,1.45778e+17,0.236158
0.0,2.0,32.01029,15412.406,-1357.906,-922.163,-27138.041,-9e-05,0.00014,32.05064,63.17863,,0.0,-0.00148,-0.00452,22.86636,53.47016,15412.406,63.17863,63.1909,0.00868289,32.05064,1.32,0.000249182,113969,113969,114027,1.52117e+17,0.234144
0.0,2.0,33.38695,15412.461,-1357.907,-922.162,-27138.041,-6e-05,-0.00028,33.43894,81.2715,,0.0,-0.0015,-0.00451,22.86621,54.84683,15412.461,81.2715,81.4023,0.00650673,33.43894,1.375,0.000249126,113943,113943,113876,1.58455e+17,0.233383
0.0,2.0,34.76408,15412.516,-1357.907,-922.162,-27138,0.0,-0.00011,34.82844,100.493,,0.0,-0.0015,-0.00455,22.86629,56.22395,15412.516,100.493,100.381,-0.00189253,34.82844,1.43,0.000248453,113635,113635,113729,1.64793e+17,0.224371
0.0,2.0,36.14053,15412.571,-1357.91,-922.163,-27138,0.00021,0.00031,36.21687,119.102,,0.0,-0.00149,-0.00452,22.8662,57.6004,15412.571,119.102,119.143,0.00197412,36.21687,1.485,0.000248207,113522,113522,113588,1.71131e+17,0.221067
0.0,2.0,37.51535,15412.626,-1357.91,-922.162,-27138.041,5e-05,0.0002,37.60384,137.9819,,0.0,-0.00151,-0.00454,22.86639,58.97522,15412.626,137.9819,138.149,0.00399987,37.60384,1.54,0.000248246,113540,113540,113452,1.77469e+17,0.221598
0.0,2.0,38.89078,15412.681,-1357.906,-922.161,-27138.04,7e-05,-0.00024,38.99208,157.892,,0.0,-0.00147,-0.00448,22.86633,60.35065,15412.681,157.892,157.678,0.00270421,38.99208,1.595,0.000247508,113203,113203,113320,1.83808e+17,0.211708
0.0,2.0,40.26448,15412.736,-1357.907,-922.163,-27138,0.00043,-0.00072,40.3784,177.506,,0.0,-0.00155,-0.00451,22.86635,61.72435,15412.736,177.506,177.525,0.00319771,40.3784,1.65,0.000247252,113086,113086,113193,1.90146e+17,0.208275
0.0,2.0,41.63708,15412.791,-1357.91,-922.162,-27138,-0.00033,-0.00033,41.76388,197.525,,0.0,-0.00156,-0.0045,22.86626,63.09695,15412.791,197.525,197.755,0.00150211,41.76388,1.705,0.000247449,113176,113176,113069,1.96484e+17,0.210917
0.0,2.0,43.01173,15412.846,-1357.907,-922.162,-27138.041,0.00026,-0.00055,43.15199,218.4262,,0.0,-0.0015,-0.00458,22.86639,64.4716,15412.846,218.4262,218.199,0.00258849,43.15199,1.76,0.000246732,112848,112848,112950,2.02822e+17,0.201301
0.0,2.0,44.38331,15412.901,-1357.91,-922.162,-27138.041,0.00035,-0.00054,44.5367,238.831,,0.0,-0.00144,-0.00457,22.86626,65.84318,15412.901,238.831,238.927,0.00298762,44.5367,1.815,0.00024668,112824,112824,112835,2.0916e+17,0.200606
0.0,2.0,45.7545,15412.956,-1357.907,-922.163,-27138.04,-0.00013,-2e-05,45.92138,259.797,,0.0,-0.0015,-0.00454,22.86629,67.21437,15412.956,259.797,260.009,0.00234906,45.92138,1.87,0.000246782,112871,112871,112723,2.15499e+17,0.201965
0.0,2.0,47.12613,15413.011,-1357.91,-922.162,-27138.039,0.0002,-0.00013,47.30705,281.621,,0.0,-0.00155,-0.00454,22.86644,68.586,15413.011,281.621,281.402,0.00574187,47.30705,1.925,0.000246053,112537,112537,112614,2.21837e+17,0.192204
0.0,2.0,48.49596,15413.066,-1357.907,-922.163,-27138,0.00028,-0.00024,48.69089,303.387,,0.0,-0.00158,-0.00446,22.8662,69.95584,15413.066,303.387,303.268,0.00158598,48.69089,1.98,0.000246077,112548,112548,112509,2.28175e+17,0.192526
0.0,3.0,49.55632,15413.121,-1357.907,-922.163,-27138.041,-0.00033,0.00024,49.75191,304.406,,0.0,-0.00146,-0.0045,22.86638,71.0162,,,,,,2.035,0.000246116,112566,112566,112407,2.34513e+17,0.193039
0.0,3.0,49.95111,15413.176,-1357.91,-922.163,-27138,5e-05,8e-05,50.13745,290.034,,0.0,-0.00149,-0.00455,22.86618,71.41098,,,,,,2.09,0.0002452889,112188,112188,112307,2.40851e+17,0.18196
0.0,3.0,50.0712,15413.231,-1357.91,-922.162,-27138,0.0005,-0.00044,50.25074,279.4599,,0.0,-0.00149,-0.00449,22.86636,71.53108,,,,,,2.145,0.00024523,112161,112161,112211,2.47189e+17,0.181175
0.0,3.0,50.09487,15413.286,-1357.907,-922.162,-27138,-0.00016,-0.00023,50.27027,273.028,,0.0,-0.00147,-0.00451,22.86627,71.55475,,,,,,2.2,0.00024547,112271,112271,112117,2.53528e+17,0.184386
0.0,3.0,50.08975,15413.341,-1357.91,-922.161,-27138.04,0.00046,0.00028,50.26312,269.883,,0.0,-0.00146,-0.00451,22.86632,71.54963,,,,,,2.255,0.000244727,111931,111931,112026,2.59866e+17,0.174429
0.0,3.0,50.07587,15413.396,-1357.91,-922.162,-27138.04,-0.00018,0.00019,50.24714,266.626,,0.0,-0.00147,-0.00452,22.86638,71.53574,,,,,,2.31,0.000244667,111904,111904,111937,2.66204e+17,0.173629
0.0,3.0,50.06199,15413.451,-1357.906,-922.162,-27138,-0.00018,-3e-05,50.23193,264.569,,0.0,-0.00148,-0.00453,22.86639,71.52186,,,,,,2.365,0.0002449494,112033,112033,111851,2.72542e+17,0.17741
0.0,3.0,50.05167,15413.506,-1357.907,-922.163,-27138,0.0003,0.00093,50.22102,263.635,,0.0,-0.00155,-0.0045,22.86644,71.51154,,,,,,2.42,0.0002441795,111680,111680,111767,2.7888e+17,0.167091
0.0,3.0,50.04229,15413.561,-1357.91,-922.162,-27138.04,-0.00019,7e-05,50.21048,261.84,,0.0,-0.00146,-0.00448,22.86649,71.50216,,,,,,2.475,0.000244172,111677,111677,111684,2.85219e+17,0.166988
0.0,3.0,50.03516,15413.616,-1357.906,-922.162,-27138.041,0.0001,-0.0001,50.2027,260.819,,0.0,-0.00148,-0.00445,22.8664,71.49503,,,,,,2.53,0.000244319,111744,111744,111604,2.91557e+17,0.168954
0.0,3.0,50.03117,15413.671,-1357.91,-922.162,-27138.04,-0.0002,-0.00019,50.19851,260.524,,0.0,-0.00144,-0.0045,22.86654,71.49104,,,,,,2.585,0.000243629,111429,111429,111526,2.97895e+17,0.159709
0.0,3.0,50.02661,15413.726,-1357.906,-922.163,-27138,-8e-05,-0.00043,50.19313,259.247,,0.0,-0.00148,-0.00448,22.86653,71.48648,,,,,,2.64,0.000243672,111448,111448,111450,3.04233e+17,0.16029
0.0,3.0,50.02339,15413.781,-1357.91,-922.163,-27138,0.00032,-0.00044,50.18947,258.553,,0.0,-0.00149,-0.00446,22.86655,71.48327,,,,,,2.695,0.000243811,111512,111512,111375,3.10571e+17,0.162149
0.0,3.0,50.02203,15413.836,-1357.91,-922.163,-27138,7e-05,0.00026,50.18805,258.463,,0.0,-0.00158,-0.00451,22.86646,71.4819,,,,,,2.75,0.000243143,111206,111206,111303,3.1691e+17,0.153198
0.0,3.0,50.01985,15413.891,-1357.91,-922.162,-27138.04,-0.00031,7e-05,50.18526,257.515,,0.0,-0.00155,-0.00452,22.86665,71.47973,,,,,,2.805,0.00024325,111255,111255,111231,3.23248e+17,0.154637
0.0,3.0,50.01788,15413.946,-1357.907,-922.163,-27138,0.00023,0.00025,50.18289,256.899,,0.0,-0.00156,-0.00451,22.86631,71.47775,,,,,,2.86,0.000243349,111301,111301,111162,3.29586e+17,0.155966
0.0,3.0,50.01731,15414.001,-1357.906,-922.162,-27138,-8e-05,-0.00021,50.18228,256.822,,0.0,-0.00152,-0.00451,22.8665,71.47719,,,,,,2.915,0.000242699,111003,111003,111094,3.35924e+17,0.147243
0.0,3.0,50.01596,15414.056,-1357.907,-922.163,-27138,1e-05,-0.00024,50.18042,256.034,,0.0,-0.0015,-0.00451,22.86651,71.47583,,,,,,2.97,0.000242896,111093,111093,111027,3.42262e+17,0.149887
0.0,3.0,50.01443,15414.111,-1357.906,-922.163,-27138,-0.00013,-0.00074,50.17846,255.36,,0.0,-0.00147,-0.00448,22.86649,71.47431,,,,,,3.025,0.000242879,111085,111085,110962,3.48601e+17,0.149654
0.0,3.0,50.01413,15414.166,-1357.91,-922.162,-27138,-0.0003,-0.00031,50.17812,255.301,,0.0,-0.00152,-0.00448,22.86635,71.47401,,,,,,3.08,0.000242274,110809,110809,110898,3.54939e+17,0.141546
0.0,3.0,50.01332,15414.221,-1357.91,-922.162,-27138,7e-05,0.00018,50.17701,254.8529,,0.0,-0.00147,-0.00445,22.86668,71.47319,,,,,,3.135,0.000242372,110854,110854,110835,3.61277e+17,0.142862
0.0,3.0,50.0121,15414.276,-1357.91,-922.163,-27138,-0.00013,8e-05,50.17536,254.166,,0.0,-0.0015,-0.0045,22.86643,71.47198,,,,,,3.19,0.000242474,110900,110900,110774,3.67615e+17,0.144226
0.0,3.0,50.01219,15414.331,-1357.907,-922.163,-27138,0.00048,-7e-05,50.17551,254.264,,0.0,-0.00152,-0.00454,22.8666,71.47206,,,,,,3.245,0.000241921,110648,110648,110714,3.73953e+17,0.136823
0.0,3.0,50.01162,15414.386,-1357.906,-922.162,-27138,0.0004,7e-05,50.17464,253.7961,,0.0,-0.00146,-0.00452,22.86645,71.47149,,,,,,3.3,0.000242043,110703,110703,110655,3.80292e+17,0.138458
0.0,3.0,50.01061,15414.441,-1357.91,-922.163,-27138.041,0.00052,-0.00046,50.17327,253.244,,0.0,-0.00149,-0.00444,22.86651,71.47048,,,,,,3.355,0.000242089,110724,110724,110597,3.8663e+17,0.139074
0.0,3.0,50.01059,15414.496,-1357.906,-922.163,-27138.04,0.00034,-0.00011,50.17329,253.303,,0.0,-0.00146,-0.00449,22.86661,71.47047,,,,,,3.41,0.000241594,110498,110498,110540,3.92968e+17,0.132434
0.0,3.0,50.01024,15414.551,-1357.907,-922.163,-27138,-3e-05,-0.00043,50.17265,252.857,,0.0,-0.00144,-0.00449,22.86661,71.47011,,,,,,3.465,0.000241557,110481,110481,110484,3.99306e+17,0.131939
0.0,3.0,50.00904,15414.606,-1357.906,-922.163,-27138,0.00011,0.00017,50.17099,252.139,,0.0,-0.0015,-0.0045,22.86655,71.46892,,,,,,3.52,0.000241738,110564,110564,110429,4.05644e+17,0.134361
0.0,3.0,50.00938,15414.661,-1357.91,-922.162,-27138.041,-0.00035,-0.00026,50.17145,252.314,,0.0,-0.00149,-0.00451,22.86644,71.46926,,,,,,3.575,0.0002412662,110348,110348,110375,4.11982e+17,0.128044
0.0,3.0,50.00927,15414.716,-1357.907,-922.162,-27138.04,0.0003,0.00047,50.17117,252.064,,0.0,-0.00151,-0.00453,22.86629,71.46914,,,,,,3.63,0.000241165,110301,110301,110322,4.18321e+17,0.126682
0.0,3.0,50.00806,15414.771,-1357.91,-922.162,-27138,-0.00035,0.0001,50.16949,251.328,,0.0,-0.00149,-0.00451,22.86652,71.46793,,,,,,3.685,0.000241477,110444,110444,110270,4.24659e+17,0.130864
0.0,3.0,50.00864,15414.826,-1357.907,-922.163,-27138.041,-0.00011,-0.00022,50.17022,251.57,,0.0,-0.0015,-0.0045,22.86649,71.46851,,,,,,3.74,0.000240946,110202,110202,110219,4.30997e+17,0.123756
0.0,3.0,50.0083,15414.881,-1357.906,-922.163,-27138.041,0.00031,-0.00016,50.16964,251.188,,0.0,-0.0015,-0.0045,22.86666,71.46817,,,,,,3.795,0.00024071,110094,110094,110169,4.37335e+17,0.120591
0.0,3.0,50.00726,15414.936,-1357.91,-922.164,-27138.042,-0.0001,-8e-05,50.16821,250.5873,,0.0,-0.00152,-0.00455,22.86656,71.46714,,,,,,3.85,0.000241186,110311,110311,110119,4.43673e+17,0.126972
0.0,3.0,50.00773,15414.991,-1357.91,-922.162,-27138.042,-0.00043,0.00012,50.16889,250.908,,0.0,-0.00149,-0.00451,22.86664,71.46761,,,,,,3.905,0.000240582,110035,110035,110071,4.50012e+17,0.118871
0.0,3.0,50.0074,15415.046,-1357.906,-922.162,-27138,-9e-05,0.00011,50.16826,250.446,,0.0,-0.00146,-0.00447,22.86656,71.46727,,,,,,3.96,0.00024042,109961,109961,110023,4.5635e+17,0.116703
0.0,3.0,50.00648,15415.101,-1357.91,-922.163,-27138.042,-0.00059,-0.00017,50.16697,249.876,,0.0,-0.00148,-0.0045,22.86667,71.46635,,,,,,4.015,0.00024091,110185,110185,109975,4.62688e+17,0.123268
0.0,3.0,50.00736,15415.156,-1357.907,-922.162,-27138.041,0.00052,0.00019,50.16817,250.359,,0.0,-0.00152,-0.00448,22.86662,71.46723,,,,,,4.07,0.000240205,109863,109863,109929,4.69026e+17,0.11382
0.0,3.0,50.00708,15415.211,-1357.91,-922.161,-27138.041,0.00035,-7e-05,50.16758,249.894,,0.0,-0.00149,-0.00449,22.86653,71.46695,,,,,,4.125,0.000240097,109813,109813,109883,4.75364e+17,0.112373
0.0,3.0,50.00602,15415.266,-1357.91,-922.162,-27138.041,4e-05,-0.00018,50.16609,249.225,,0.0,-0.00148,-0.0045,22.86648,71.46589,,,,,,4.18,0.00024061,110048,110048,109838,4.81703e+17,0.119247
0.0,3.0,50.00669,15415.321,-1357.906,-922.163,-27138.041,0.0001,0.00038,50.167,249.592,,0.0,-0.00151,-0.00449,22.8666,71.46656,,,,,,4.235,0.000239939,109741,109741,109794,4.88041e+17,0.110255
0.0,3.0,50.00668,15415.376,-1357.907,-922.161,-27138,7e-05,-0.00019,50.16679,249.277,,0.0,-0.00152,-0.0045,22.86661,71.46655,,,,,,4.29,0.000239801,109678,109678,109750,4.94379e+17,0.108405
0.0,3.0,50.00545,15415.431,-1357.907,-922.162,-27138.04,0.00017,-5e-05,50.16516,248.659,,0.0,-0.00144,-0.00448,22.86671,71.46532,,,,,,4.345,0.000240275,109895,109895,109707,5.00717e+17,0.11476
0.0,3.0,50.0063,15415.486,-1357.907,-922.163,-27138,-0.00019,0.00043,50.16629,249.091,,0.0,-0.00148,-0.0045,22.86644,71.46618,,,,,,4.4,0.000239574,109574,109574,109664,5.07055e+17,0.105358
0.0,3.0,50.00601,15415.541,-1357.91,-922.163,-27138,0.00024,0.00019,50.16576,248.72,,0.0,-0.00147,-0.00449,22.86676,71.46588,,,,,,4.455,0.000239635,109602,109602,109622,5.13394e+17,0.106188
0.0,3.0,50.00506,15415.596,-1357.91,-922.163,-27138.041,-6e-05,-0.00043,50.16442,248.129,,0.0,-0.00148,-0.00452,22.86651,71.46493,,,,,,4.51,0.000239989,109764,109764,109581,5.19732e+17,0.11093
0.0,3.0,50.00591,15415.651,-1357.907,-922.161,-27138.041,0.00015,-0.00012,50.16556,248.5658,,0.0,-0.00147,-0.0045,22.86662,71.46578,,,,,,4.565,0.000239301,109449,109449,109540,5.2607e+17,0.101705
0.0,3.0,50.00562,15415.706,-1357.91,-922.162,-27138,-0.0001,-0.00016,50.16501,248.164,,0.0,-0.00153,-0.0045,22.86673,71.46549,,,,,,4.62,0.000239309,109453,109453,109500,5.32408e+17,0.101808
0.0,3.0,50.0046,15415.761,-1357.907,-922.162,-27138,-0.0,-0.00049,50.16366,247.649,,0.0,-0.00149,-0.00451,22.86669,71.46447,,,,,,4.675,0.0002396705,109618,109618,109460,5.38746e+17,0.106657
0.0,3.0,50.00552,15415.816,-1357.907,-922.161,-27138,0.00029,0.00046,50.16482,248.024,,0.0,-0.00144,-0.00449,22.86678,71.46539,,,,,,4.73,0.000239037,109328,109328,109421,5.45084e+17,0.0981672
0.0,3.0,50.00519,15415.871,-1357.907,-922.162,-27138.043,0.00014,-5e-05,50.16424,247.62,,0.0,-0.00148,-0.0045,22.86666,71.46507,,,,,,4.785,0.0002389509,109289,109289,109383,5.51423e+17,0.0970125
0.0,3.0,50.00451,15415.926,-1357.91,-922.163,-27138,-8e-05,-0.00028,50.1633,247.232,,0.0,-0.00151,-0.00451,22.86652,71.46438,,,,,,4.84,0.000239295,109446,109446,109345,5.57761e+17,0.101619
0.0,3.0,50.00508,15415.981,-1357.907,-922.162,-27138,7e-05,-5e-05,50.1641,247.58,,0.0,-0.00149,-0.00449,22.86692,71.46496,,,,,,4.895,0.000238817,109228,109228,109307,5.64099e+17,0.0952164
0.0,3.0,50.0047,15416.036,-1357.91,-922.163,-27138,-0.00039,-5e-05,50.1634,247.082,,0.0,-0.00149,-0.00454,22.86677,71.46458,,,,,,4.95,0.000238685,109167,109167,109270,5.70437e+17,0.0934444
0.0,3.0,50.00421,15416.091,-1357.91,-922.162,-27138,0.00024,0.0005,50.16276,246.867,,0.0,-0.00152,-0.00447,22.86667,71.46408,,,,,,5.005,0.000238998,109311,109311,109233,5.76775e+17,0.0976437
0.0,3.0,50.00498,15416.146,-1357.907,-922.162,-27138.042,0.00032,0.00024,50.16372,247.1562,,0.0,-0.0015,-0.00449,22.86655,71.46486,,,,,,5.06,0.000238697,109173,109173,109197,5.83114e+17,0.0936047
0.0,3.0,50.00471,15416.201,-1357.91,-922.162,-27138,-0.00016,-0.00012,50.16321,246.7739,,0.0,-0.0015,-0.00454,22.86675,71.46459,,,,,,5.115,0.0002383664,109022,109022,109161,5.89452e+17,0.0891786
0.0,3.0,50.00401,15416.256,-1357.907,-922.162,-27138.042,0.00018,0.00022,50.1623,246.451,,0.0,-0.00157,-0.0046,22.86666,71.46388,,,,,,5.17,0.000238701,109175,109175,109126,5.9579e+17,0.093667
0.0,3.0,50.00485,15416.311,-1357.91,-922.162,-27138.042,-0.00033,-0.00025,50.16332,246.725,,0.0,-0.00151,-0.00455,22.86663,71.46473,,,,,,5.225,0.000238557,109109,109109,109091,6.02128e+17,0.0917266
0.0,3.0,50.0046,15416.366,-1357.906,-922.163,-27138.041,-4e-05,0.00015,50.16281,246.328,,0.0,-0.00144,-0.00452,22.86683,71.46447,,,,,,5.28,0.000238103,108901,108901,109057,6.08466e+17,0.0856445
0.0,3.0,50.00384,15416.421,-1357.907,-922.163,-27138.04,-0.00037,-0.00029,50.16186,246.048,,0.0,-0.00147,-0.00453,22.86686,71.46371,,,,,,5.335,0.0002385236,109094,109094,109023,6.14805e+17,0.0912855
0.0,3.0,50.00444,15416.476,-1357.906,-922.163,-27138,-0.00027,-0.00036,50.16263,246.29,,0.0,-0.00148,-0.00455,22.8667,71.46431,,,,,,5.39,0.000238253,108970,108970,108989,6.21143e+17,0.0876609
0.0,3.0,50.00436,15416.531,-1357.91,-922.162,-27138,3e-05,0.00016,50.16241,246.072,,0.0,-0.00152,-0.00455,22.86667,71.46424,,,,,,5.445,0.000237857,108789,108789,108956,6.27481e+17,0.0823561
0.0,3.0,50.00376,15416.586,-1357.91,-922.163,-27138.042,0.00018,0.00021,50.16156,245.684,,0.0,-0.00153,-0.00451,22.8667,71.46363,,,,,,5.5,0.000238284,108984,108984,108924,6.33819e+17,0.0880752
0.0,3.0,50.00408,15416.641,-1357.91,-922.163,-27138.042,2e-05,0.00012,50.16204,245.947,,0.0,-0.0015,-0.00452,22.86687,71.46395,,,,,,5.555,0.000238036,108870,108870,108891,6.40157e+17,0.084747
0.0,3.0,50.00428,15416.696,-1357.91,-922.163,-27138,0.00051,0.00042,50.16216,245.813,,0.0,-0.00151,-0.00452,22.86669,71.46415,,,,,,5.61,0.000237614,108677,108677,108859,6.46496e+17,0.079089
0.0,3.0,50.00345,15416.751,-1357.91,-922.162,-27138.041,7e-05,-0.0,50.16098,245.275,,0.0,-0.0015,-0.00452,22.86683,71.46332,,,,,,5.665,0.000238091,108896,108896,108828,6.52834e+17,0.0854831
0.0,3.0,50.0039,15416.806,-1357.907,-922.162,-27138,0.00022,4e-05,50.16161,245.561,,0.0,-0.00154,-0.00455,22.86673,71.46377,,,,,,5.72,0.000237869,108794,108794,108797,6.59172e+17,0.082507
0.0,3.0,50.00433,15416.861,-1357.907,-922.163,-27138.041,0.00017,0.00032,50.16203,245.546,,0.0,-0.00152,-0.0045,22.8668,71.4642,,,,,,5.775,0.000237392,108576,108576,108766,6.6551e+17,0.0761246
0.0,3.0,50.00327,15416.916,-1357.906,-922.162,-27138,-3e-05,-0.00025,50.16056,244.891,,0.0,-0.00155,-0.00453,22.86681,71.46315,,,,,,5.83,0.000237939,108826,108826,108735,6.71848e+17,0.0834506
0.0,3.0,50.00365,15416.971,-1357.91,-922.162,-27138.04,0.00012,0.00034,50.16115,245.224,,0.0,-0.00158,-0.00457,22.86677,71.46352,,,,,,5.885,0.000237591,108667,108667,108705,6.78187e+17,0.0787861
0.0,3.0,50.00395,15417.026,-1357.91,-922.162,-27138.04,0.00011,-0.00029,50.16142,245.17,,0.0,-0.00156,-0.0045,22.86696,71.46383,,,,,,5.94,0.00023719,108484,108484,108676,6.84525e+17,0.07341
0.0,3.0,50.00307,15417.081,-1357.907,-922.163,-27138.041,-4e-05,-0.00012,50.16016,244.585,,0.0,-0.00147,-0.00454,22.86675,71.46294,,,,,,5.995,0.00023775,108740,108740,108646,6.90863e+17,0.080918
0.0,3.0,50.00372,15417.136,-1357.906,-922.163,-27138.041,-3e-05,0.00021,50.16107,244.987,,0.0,-0.00148,-0.00452,22.8669,71.46359,,,,,,6.05,0.00023742,108589,108589,108617,6.97201e+17,0.076498
0.0,3.0,50.00394,15417.191,-1357.91,-922.163,-27138,0.00022,0.00029,50.16123,244.902,,0.0,-0.00151,-0.00449,22.86693,71.46381,,,,,,6.105,0.000237027,108409,108409,108588,7.03539e+17,0.0712303
0.0,3.0,50.00281,15417.246,-1357.906,-922.163,-27138.041,-4e-05,-0.00034,50.15967,244.233,,0.0,-0.00152,-0.0045,22.86693,71.46269,,,,,,6.16,0.000237592,108667,108667,108560,7.09877e+17,0.0787978
0.0,3.0,50.00352,15417.301,-1357.907,-922.162,-27138,-9e-05,0.0004,50.16064,244.632,,0.0,-0.00153,-0.00451,22.86677,71.4634,,,,,,6.215,0.0002372249,108500,108500,108532,7.16216e+17,0.0738792
0.0,3.0,50.00377,15417.356,-1357.91,-922.163,-27138.041,-0.00015,-1e-05,50.16085,244.578,,0.0,-0.00156,-0.00457,22.86689,71.46364,,,,,,6.27,0.00023682,108314,108314,108504,7.22554e+17,0.0684467
0.0,3.0,50.00267,15417.411,-1357.906,-922.162,-27138.041,0.00011,-0.0004,50.15936,243.967,,0.0,-0.00154,-0.0045,22.86692,71.46254,,,,,,6.325,0.000237434,108595,108595,108477,7.28892e+17,0.0766868
0.0,3.0,50.00339,15417.466,-1357.91,-922.163,-27138.042,3e-05,8e-05,50.16034,244.378,,0.0,-0.00155,-0.00451,22.86685,71.46326,,,,,,6.38,0.000236975,108385,108385,108450,7.3523e+17,0.0705329
0.0,3.0,50.00349,15417.521,-1357.907,-922.163,-27138.042,-0.0001,-0.00011,50.16033,244.189,,0.0,-0.00149,-0.00454,22.86654,71.46337,,,,,,6.435,0.000236686,108253,108253,108423,7.41568e+17,0.0666536
0.0,3.0,50.00257,15417.576,-1357.91,-922.163,-27138,0.00033,-0.00058,50.15906,243.656,,0.0,-0.00146,-0.00452,22.86688,71.46244,,,,,,6.49,0.000237255,108513,108513,108397,7.47907e+17,0.0742842
0.0,3.0,50.00336,15417.631,-1357.91,-922.162,-27138,-0.0001,-0.00023,50.16012,244.086,,0.0,-0.00145,-0.00451,22.86689,71.46323,,,,,,6.545,0.000236704,108261,108261,108370,7.54245e+17,0.0669003
0.0,3.0,50.00355,15417.686,-1357.907,-922.164,-27138.041,-0.00014,2e-05,50.16022,243.926,,0.0,-0.00148,-0.00457,22.86696,71.46343,,,,,,6.6,0.000236552,108192,108192,108344,7.60583e+17,0.0648576
0.0,3.0,50.00251,15417.741,-1357.91,-922.163,-27138.041,0.00011,-3e-05,50.15882,243.382,,0.0,-0.00146,-0.0045,22.86697,71.46238,,,,,,6.655,0.0002371446,108463,108463,108319,7.66921e+17,0.0728029
0.0,3.0,50.00311,15417.796,-1357.91,-922.162,-27138,0.00015,0.00024,50.15966,243.741,,0.0,-0.00152,-0.00455,22.86686,71.46298,,,,,,6.71,0.0002366233,108224,108224,108294,7.73259e+17,0.065816
0.0,3.0,50.00345,15417.851,-1357.91,-922.162,-27138,-0.00022,0.00025,50.15996,243.686,,0.0,-0.00153,-0.00453,22.86682,71.46332,,,,,,6.765,0.000236532,108183,108183,108268,7.79598e+17,0.064593
0.0,3.0,50.00254,15417.906,-1357.91,-922.163,-27138,-8e-05,-0.00019,50.15872,243.168,,0.0,-0.00153,-0.00452,22.86701,71.46241,,,,,,6.82,0.00023694,108369,108369,108244,7.85936e+17,0.0700607
0.0,3.0,50.00302,15417.961,-1357.91,-922.162,-27138,0.00049,-0.00019,50.15936,243.43,,0.0,-0.00151,-0.00454,22.86703,71.46289,,,,,,6.875,0.000236437,108139,108139,108219,7.92274e+17,0.0633211
0.0,3.0,50.00328,15418.016,-1357.907,-922.162,-27138.041,-0.00023,-2e-05,50.15961,243.406,,0.0,-0.00145,-0.00452,22.86695,71.46316,,,,,,6.93,0.000236338,108094,108094,108195,7.98612e+17,0.0619969
0.0,3.0,50.00264,15418.071,-1357.907,-922.162,-27138.041,-0.00018,-3e-05,50.15867,242.94,,0.0,-0.0015,-0.00455,22.86685,71.46252,,,,,,6.985,0.000236704,108261,108261,108171,8.0495e+17,0.0668971
0.0,3.0,50.00276,15418.126,-1357.91,-922.162,-27138.041,7e-05,-0.00015,50.1589,243.113,,0.0,-0.00152,-0.00453,22.86698,71.46263,,,,,,7.04,0.000236356,108102,108102,108147,8.11289e+17,0.0622377
0.0,3.0,50.00343,15418.181,-1357.91,-922.163,-27138.041,0.0002,4e-05,50.15968,243.28,,0.0,-0.00154,-0.00457,22.86696,71.4633,,,,,,7.095,0.000236217,108039,108039,108124,8.17627e+17,0.060377
0.0,3.0,50.00275,15418.236,-1357.91,-922.163,-27138.04,-6e-05,0.00014,50.1587,242.808,,0.0,-0.00157,-0.00453,22.86708,71.46262,,,,,,7.15,0.000236556,108194,108194,108101,8.23965e+17,0.0649099
0.0,3.0,50.00254,15418.291,-1357.907,-922.162,-27138,3e-05,2e-05,50.15847,242.785,,0.0,-0.00152,-0.00455,22.86713,71.46241,,,,,,7.205,0.000236264,108060,108060,108078,8.30303e+17,0.0610053
0.0,3.0,50.00331,15418.346,-1357.906,-922.163,-27138,-0.00011,-0.0,50.15938,243,,0.0,-0.00151,-0.00458,22.86703,71.46318,,,,,,7.26,0.00023595,107916,107916,108055,8.36641e+17,0.0567903
0.0,3.0,50.00258,15418.401,-1357.91,-922.162,-27138,-0.00044,0.00027,50.15831,242.4868,,0.0,-0.00144,-0.00455,22.86692,71.46245,,,,,,7.315,0.000236411,108127,108127,108033,8.4298e+17,0.0629711
0.0,3.0,50.00248,15418.456,-1357.907,-922.162,-27138.04,3e-05,-0.00016,50.15825,242.548,,0.0,-0.00154,-0.00451,22.86682,71.46235,,,,,,7.37,0.000236184,108024,108024,108011,8.49318e+17,0.0599306
0.0,3.0,50.00313,15418.511,-1357.907,-922.163,-27138,0.00045,0.00011,50.15906,242.788,,0.0,-0.00147,-0.00453,22.86704,71.463,,,,,,7.425,0.000235826,107860,107860,107989,8.55656e+17,0.0551357
0.0,3.0,50.00242,15418.566,-1357.91,-922.162,-27138,3e-05,-0.00027,50.15801,242.2558,,0.0,-0.00148,-0.00452,22.86692,71.46229,,,,,,7.48,0.00023626,108058,108058,107967,8.61994e+17,0.0609492
0.0,3.0,50.0024,15418.621,-1357.91,-922.163,-27138.04,-0.00034,-0.00031,50.15805,242.339,,0.0,-0.00152,-0.00452,22.86698,71.46228,,,,,,7.535,0.000236104,107987,107987,107946,8.68332e+17,0.0588571
0.0,3.0,50.00309,15418.676,-1357.91,-922.162,-27138.041,5e-05,0.00025,50.15891,242.614,,0.0,-0.0015,-0.00455,22.86718,71.46296,,,,,,7.59,0.000235726,107814,107814,107925,8.7467e+17,0.053796
0.0,3.0,50.00228,15418.731,-1357.91,-922.163,-27138.041,-6e-05,-0.00044,50.15772,242.035,,0.0,-0.00147,-0.00458,22.8671,71.46215,,,,,,7.645,0.000236245,108052,108052,107904,8.81009e+17,0.0607495
0.0,3.0,50.00223,15418.786,-1357.907,-922.162,-27138,-0.00033,9e-05,50.1577,242.069,,0.0,-0.00148,-0.00452,22.86695,71.4621,,,,,,7.7,0.0002359684,107925,107925,107883,8.87347e+17,0.0570385
0.0,3.0,50.00318,15418.841,-1357.91,-922.163,-27138,3e-05,0.00032,50.15888,242.428,,0.0,-0.00148,-0.00449,22.86703,71.46305,,,,,,7.755,0.000235537,107727,107727,107863,8.93685e+17,0.0512514
0.0,3.0,50.00217,15418.896,-1357.91,-922.163,-27138,8e-05,-0.00036,50.15743,241.744,,0.0,-0.00151,-0.00455,22.86688,71.46204,,,,,,7.81,0.000236093,107982,107982,107842,9.00023e+17,0.0587124
0.0,3.0,50.00214,15418.951,-1357.907,-922.162,-27138.042,-0.0,-5e-05,50.15748,241.862,,0.0,-0.00148,-0.00453,22.86712,71.46202,,,,,,7.865,0.000235803,107849,107849,107822,9.06361e+17,0.0548191
0.0,3.0,50.00303,15419.006,-1357.907,-922.16,-27138,0.00019,0.00048,50.15862,242.255,,0.0,-0.00149,-0.00456,22.86687,71.4629,,,,,,7.92,0.0002354618,107693,107693,107802,9.127e+17,0.0502486
0.0,3.0,50.00206,15419.061,-1357.91,-922.163,-27138,-7e-05,-0.00042,50.15718,241.53,,0.0,-0.00152,-0.00456,22.86715,71.46193,,,,,,7.975,0.000236001,107940,107940,107783,9.19038e+17,0.0574765
0.0,3.0,50.00216,15419.116,-1357.91,-922.164,-27138.04,-0.00012,0.0003,50.15739,241.702,,0.0,-0.00148,-0.00455,22.86686,71.46203,,,,,,8.03,0.000235612,107762,107762,107763,9.25376e+17,0.0522596
0.0,3.0,50.00285,15419.171,-1357.91,-922.163,-27138,0.00021,-0.00022,50.15828,242.005,,0.0,-0.00146,-0.00455,22.86704,71.46273,,,,,,8.085,0.000235313,107625,107625,107744,9.31714e+17,0.0482563
0.0,3.0,50.00195,15419.226,-1357.907,-922.162,-27138,-0.0002,-0.0003,50.15696,241.3502,,0.0,-0.00152,-0.00457,22.86711,71.46182,,,,,,8.14,0.00023593,107907,107907,107725,9.38052e+17,0.0565246
0.0,3.0,50.00213,15419.281,-1357.907,-922.163,-27138.041,0.00027,7e-05,50.15727,241.546,,0.0,-0.00146,-0.00459,22.86693,71.46201,,,,,,8.195,0.0002355,107711,107711,107706,9.44391e+17,0.0507658
0.0,3.0,50.00294,15419.336,-1357.907,-922.163,-27138,-4e-05,-0.00019,50.15827,241.854,,0.0,-0.00149,-0.00456,22.86701,71.46282,,,,,,8.25,0.000235182,107565,107565,107688,9.50729e+17,0.046496
0.0,3.0,50.00202,15419.391,-1357.907,-922.162,-27138,-8e-05,-9e-05,50.15696,241.249,,0.0,-0.00151,-0.00458,22.86714,71.46189,,,,,,8.305,0.000235802,107849,107849,107669,9.57067e+17,0.0548116
0.0,3.0,50.00235,15419.446,-1357.907,-922.163,-27138.04,0.00018,0.00017,50.1574,241.43,,0.0,-0.00153,-0.00453,22.86709,71.46222,,,,,,8.36,0.000235398,107664,107664,107651,9.63405e+17,0.0493969
0.0,3.0,50.00289,15419.501,-1357.907,-922.162,-27138.041,0.00024,0.00024,50.15808,241.639,,0.0,-0.00151,-0.00454,22.86712,71.46276,,,,,,8.415,0.000235051,107505,107505,107633,9.69743e+17,0.0447404
0.0,3.0,50.00189,15419.556,-1357.91,-922.164,-27138,4e-05,-0.0001,50.1567,241.039,,0.0,-0.00155,-0.00458,22.86706,71.46177,,,,,,8.47,0.000235651,107780,107780,107615,9.76082e+17,0.0527862
0.0,3.0,50.00228,15419.611,-1357.907,-922.163,-27138,5e-05,4e-05,50.15728,241.335,,0.0,-0.00151,-0.00458,22.86691,71.46216,,,,,,8.525,0.000235261,107601,107601,107598,9.8242e+17,0.0475528
0.0,3.0,50.00274,15419.666,-1357.91,-922.162,-27138.04,-0.00037,0.0,50.15779,241.415,,0.0,-0.00151,-0.0046,22.86719,71.46261,,,,,,8.58,0.000234849,107413,107413,107581,9.88758e+17,0.0420396
0.0,3.0,50.0018,15419.721,-1357.907,-922.162,-27138,4e-05,-0.00038,50.15648,240.846,,0.0,-0.0015,-0.00452,22.8671,71.46167,,,,,,8.635,0.000235539,107728,107728,107563,9.95096e+17,0.0512798
0.0,3.0,50.00221,15419.776,-1357.907,-922.162,-27138,2e-05,-0.0001,50.15711,241.182,,0.0,-0.00149,-0.00459,22.86707,71.46209,,,,,,8.69,0.000235188,107568,107568,107546,1.00143e+18,0.0465824
0.0,3.0,50.00249,15419.831,-1357.907,-922.162,-27138.04,-0.00018,-4e-05,50.15737,241.16,,0.0,-0.00149,-0.00457,22.86721,71.46236,,,,,,8.745,0.000234875,107425,107425,107529,1.00777e+18,0.0423822
0.0,3.0,50.00163,15419.886,-1357.907,-922.162,-27138.04,-0.00015,-0.00027,50.15618,240.645,,0.0,-0.00149,-0.00454,22.86717,71.4615,,,,,,8.8,0.00023544,107683,107683,107513,1.01411e+18,0.0499546
0.0,3.0,50.00207,15419.941,-1357.91,-922.162,-27138,0.00021,-0.00016,50.15687,241.035,,0.0,-0.00154,-0.00455,22.86717,71.46194,,,,,,8.855,0.0002350763,107517,107517,107496,1.02045e+18,0.0450818
0.0,3.0,50.00263,15419.996,-1357.906,-922.162,-27138,-0.00024,0.00032,50.1575,241.136,,0.0,-0.00151,-0.00456,22.86719,71.4625,,,,,,8.91,0.000234832,107405,107405,107480,1.02679e+18,0.041807
0.0,3.0,50.0017,15420.051,-1357.91,-922.162,-27138,-0.00032,2e-05,50.15622,240.602,,0.0,-0.00155,-0.00455,22.86705,71.46157,,,,,,8.965,0.00023524,107592,107592,107464,1.03313e+18,0.0472808
0.0,3.0,50.00197,15420.106,-1357.907,-922.162,-27138,-0.00013,-0.00039,50.15665,240.8379,,0.0,-0.00145,-0.00456,22.867,71.46185,,,,,,9.02,0.000234944,107456,107456,107448,1.03946e+18,0.0433092
0.0,3.0,50.00239,15420.161,-1357.91,-922.163,-27138,0.00023,0.00029,50.15713,240.947,,0.0,-0.00149,-0.00458,22.86734,71.46226,,,,,,9.075,0.000234665,107329,107329,107432,1.0458e+18,0.0395657
0.0,3.0,50.00187,15420.216,-1357.908,-922.163,-27138,-0.00014,-0.00015,50.15634,240.509,,0.0,-0.00152,-0.00454,22.86698,71.46174,,,,,,9.13,0.000235102,107529,107529,107417,1.05214e+18,0.0454311
0.0,3.0,50.00199,15420.271,-1357.91,-922.162,-27138.042,0.00011,3e-05,50.15655,240.658,,0.0,-0.00151,-0.00456,22.86719,71.46186,,,,,,9.185,0.00023488,107427,107427,107401,1.05848e+18,0.0424532
0.0,3.0,50.00266,15420.326,-1357.91,-922.162,-27138.042,-1e-05,-0.0001,50.15735,240.863,,0.0,-0.00145,-0.00454,22.86727,71.46253,,,,,,9.24,0.000234568,107284,107284,107386,1.06482e+18,0.03827
0.0,3.0,50.00174,15420.381,-1357.91,-922.162,-27138.041,-5e-05,-0.00034,50.15609,240.338,,0.0,-0.00148,-0.00457,22.86724,71.46161,,,,,,9.295,0.000234949,107459,107459,107371,1.07115e+18,0.0433746
0.0,3.0,50.00172,15420.436,-1357.91,-922.161,-27138.04,-0.0,-7e-05,50.15613,240.41,,0.0,-0.00151,-0.00455,22.86718,71.4616,,,,,,9.35,0.000234801,107391,107391,107356,1.07749e+18,0.041394
0.0,3.0,50.00231,15420.491,-1357.906,-922.163,-27138.041,1e-05,0.00012,50.15691,240.724,,0.0,-0.00149,-0.00451,22.8673,71.46218,,,,,,9.405,0.000234398,107207,107207,107341,1.08383e+18,0.0359951
0.0,3.0,50.00167,15420.546,-1357.91,-922.162,-27138,0.0002,-0.0001,50.15598,240.267,,0.0,-0.00147,-0.00456,22.86722,71.46154,,,,,,9.46,0.000234804,107392,107392,107326,1.09017e+18,0.0414291
0.0,3.0,50.00157,15420.601,-1357.906,-922.163,-27138,-0.00048,-4e-05,50.15587,240.255,,0.0,-0.00151,-0.00453,22.86724,71.46144,,,,,,,,,,,,
0.0,3.0,50.00256,15420.656,-1357.91,-922.163,-27138.04,0.0002,0.0001,50.15711,240.644,,0.0,-0.00148,-0.00457,22.86714,71.46243,,,,,,,,,,,,
0.0,3.0,50.00158,15420.711,-1357.907,-922.162,-27138.04,-0.00021,-0.00041,50.15575,240.045,,0.0,-0.00147,-0.00453,22.86728,71.46146,,,,,,,,,,,,
0.0,3.0,50.00176,15420.766,-1357.91,-922.163,-27138.041,-3e-05,0.00025,50.15602,240.191,,0.0,-0.00151,-0.00457,22.86733,71.46163,,,,,,,,,,,,
0.0,3.0,50.00259,15420.821,-1357.906,-922.162,-27138.041,0.00021,0.00013,50.1571,240.566,,0.0,-0.00149,-0.00455,22.86726,71.46247,,,,,,,,,,,,
0.0,3.0,50.00164,15420.876,-1357.907,-922.163,-27138,-0.00043,-0.00034,50.15571,239.9,,0.0,-0.00147,-0.00458,22.86712,71.46151,,,,,,,,,,,,
0.0,3.0,50.00161,15420.931,-1357.907,-922.163,-27138.041,0.00011,-0.00033,50.15582,240.111,,0.0,-0.0015,-0.00453,22.86727,71.46149,,,,,,,,,,,,
0.0,3.0,50.00245,15420.986,-1357.91,-922.162,-27138,0.00015,0.00039,50.15687,240.432,,0.0,-0.00156,-0.00458,22.86724,71.46232,,,,,,,,,,,,
0.0,3.0,50.00149,15421.041,-1357.907,-922.163,-27138.041,-0.00011,-0.00018,50.15552,239.825,,0.0,-0.0015,-0.00456,22.86721,71.46136,,,,,,,,,,,,
0.0,3.0,50.00162,15421.096,-1357.91,-922.162,-27138,0.0003,0.00031,50.15577,240.017,,0.0,-0.0015,-0.00459,22.8671,71.4615,,,,,,,,,,,,
0.0,3.0,50.00253,15421.151,-1357.91,-922.163,-27138,-0.00025,0.00032,50.15688,240.343,,0.0,-0.00147,-0.00451,22.86737,71.4624,,,,,,,,,,,,
0.0,3.0,50.00145,15421.206,-1357.906,-922.162,-27138.04,-0.00026,-0.00054,50.15539,239.694,,0.0,-0.0015,-0.00456,22.86729,71.46132,,,,,,,,,,,,
0.0,3.0,50.00174,15421.261,-1357.91,-922.162,-27138,-0.00014,-0.00032,50.15581,239.898,,0.0,-0.00149,-0.00456,22.86733,71.46161,,,,,,,,,,,,
0.0,3.0,50.00256,15421.316,-1357.91,-922.162,-27138.04,-0.00021,-0.00029,50.15682,240.188,,0.0,-0.00152,-0.0045,22.86725,71.46243,,,,,,,,,,,,
0.0,3.0,50.00134,15421.371,-1357.907,-922.162,-27138,0.00017,-0.00064,50.15519,239.554,,0.0,-0.00153,-0.00451,22.86746,71.46122,,,,,,,,,,,,
0.0,3.0,50.00166,15421.426,-1357.91,-922.163,-27138.04,-0.00012,0.00035,50.15569,239.829,,0.0,-0.00155,-0.00458,22.86731,71.46154,,,,,,,,,,,,
0.0,3.0,50.0023,15421.481,-1357.907,-922.162,-27138,0.00011,0.00046,50.15649,240.08,,0.0,-0.00151,-0.00456,22.86748,71.46218,,,,,,,,,,,,
0.0,3.0,50.00136,15421.536,-1357.91,-922.162,-27138,-0.00034,-0.0005,50.15516,239.483,,0.0,-0.00148,-0.00455,22.86728,71.46123,,,,,,,,,,,,
0.0,3.0,50.00157,15421.591,-1357.91,-922.162,-27138.04,0.00016,-7e-05,50.15549,239.669,,0.0,-0.00146,-0.00452,22.8673,71.46144,,,,,,,,,,,,
0.0,3.0,50.00251,15421.646,-1357.906,-922.161,-27138,0.00022,8e-05,50.15668,240.05,,0.0,-0.00146,-0.0045,22.86723,71.46238,,,,,,,,,,,,
0.0,3.0,50.00143,15421.701,-1357.907,-922.163,-27138,-0.00029,1e-05,50.15513,239.311,,0.0,-0.00145,-0.00454,22.86741,71.4613,,,,,,,,,,,,
0.0,3.0,50.00151,15421.756,-1357.907,-922.163,-27138,9e-05,-7e-05,50.15533,239.5,,0.0,-0.00147,-0.00457,22.86724,71.46139,,,,,,,,,,,,
0.0,3.0,50.00237,15421.811,-1357.91,-922.163,-27138.04,4e-05,0.00026,50.15642,239.869,,0.0,-0.00146,-0.00454,22.86757,71.46224,,,,,,,,,,,,
0.0,3.0,50.00124,15421.866,-1357.907,-922.161,-27138,-0.00033,-4e-05,50.15487,239.2156,,0.0,-0.0015,-0.00454,22.86751,71.46112,,,,,,,,,,,,
0.0,3.0,50.00157,15421.921,-1357.91,-922.163,-27138,-4e-05,-0.00041,50.15533,239.411,,0.0,-0.00148,-0.00454,22.86742,71.46144,,,,,,,,,,,,
0.0,3.0,50.00215,15421.976,-1357.91,-922.162,-27138,0.00015,-0.00027,50.15607,239.6559,,0.0,-0.00146,-0.00456,22.86731,71.46203,,,,,,,,,,,,
0.0,3.0,50.00142,15422.031,-1357.91,-922.162,-27138,-0.00013,0.00025,50.15504,239.198,,0.0,-0.00146,-0.00455,22.86733,71.46129,,,,,,,,,,,,
0.0,3.0,50.00145,15422.086,-1357.907,-922.163,-27138.04,-8e-05,-9e-05,50.15511,239.254,,0.0,-0.00147,-0.0045,22.8674,71.46132,,,,,,,,,,,,
0.0,3.0,50.00236,15422.141,-1357.906,-922.162,-27138,8e-05,0.00021,50.15624,239.593,,0.0,-0.00143,-0.00458,22.86731,71.46223,,,,,,,,,,,,
0.0,3.0,50.00139,15422.196,-1357.91,-922.161,-27138,3e-05,0.00047,50.1549,239.03,,0.0,-0.00146,-0.00457,22.8676,71.46126,,,,,,,,,,,,
0.0,3.0,50.00138,15422.251,-1357.91,-922.163,-27138,0.0001,0.00016,50.15498,239.164,,0.0,-0.00144,-0.00457,22.86737,71.46126,,,,,,,,,,,,
0.0,3.0,50.00209,15422.306,-1357.907,-922.163,-27138.04,0.0003,-0.00014,50.15585,239.4252,,0.0,-0.00146,-0.00457,22.8673,71.46196,,,,,,,,,,,,
0.0,3.0,50.0014,15422.361,-1357.91,-922.162,-27138.039,-0.00017,0.00011,50.15487,238.959,,0.0,-0.00145,-0.00451,22.86751,71.46128,,,,,,,,,,,,
0.0,3.0,50.00139,15422.416,-1357.91,-922.162,-27138.04,1e-05,0.00042,50.15489,239.011,,0.0,-0.00146,-0.00456,22.8675,71.46126,,,,,,,,,,,,
0.0,3.0,50.00212,15422.471,-1357.907,-922.162,-27138.04,6e-05,7e-05,50.15583,239.329,,0.0,-0.0015,-0.00457,22.86732,71.46199,,,,,,,,,,,,
0.0,3.0,50.00153,15422.526,-1357.907,-922.162,-27138.041,-3e-05,-0.0003,50.15495,238.884,,0.0,-0.00146,-0.00455,22.86736,71.4614,,,,,,,,,,,,
0.0,3.0,50.00131,15422.581,-1357.906,-922.162,-27138,-0.00031,-0.00011,50.15472,238.864,,0.0,-0.00148,-0.00452,22.86735,71.46118,,,,,,,,,,,,
0.0,3.0,50.00215,15422.636,-1357.91,-922.162,-27138,9e-05,0.00025,50.1558,239.241,,0.0,-0.00146,-0.00451,22.86718,71.46202,,,,,,,,,,,,
0.0,3.0,50.00133,15422.691,-1357.907,-922.163,-27138,9e-05,-5e-05,50.15466,238.746,,0.0,-0.00144,-0.00457,22.86735,71.4612,,,,,,,,,,,,
0.0,3.0,50.00125,15422.746,-1357.907,-922.162,-27138,-0.00018,0.00048,50.15449,238.612,,0.0,-0.0015,-0.00453,22.86739,71.46112,,,,,,,,,,,,
0.0,3.0,50.00194,15422.801,-1357.907,-922.163,-27138.041,-0.00025,0.0004,50.15551,239.117,,0.0,-0.0015,-0.00452,22.86764,71.46181,,,,,,,,,,,,
0.0,3.0,50.0013,15422.856,-1357.91,-922.162,-27138.04,0.00022,-0.00013,50.15457,238.644,,0.0,-0.00146,-0.00453,22.86749,71.46118,,,,,,,,,,,,
0.0,3.0,50.00087,15422.911,-1357.91,-922.162,-27138.04,-4e-05,8e-05,50.15398,238.412,,0.0,-0.00152,-0.00454,22.86752,71.46074,,,,,,,,,,,,
0.0,3.0,50.00201,15422.966,-1357.91,-922.163,-27138,-1e-05,0.00039,50.15553,239.034,,0.0,-0.00149,-0.00457,22.86761,71.46188,,,,,,,,,,,,
0.0,3.0,50.00156,15423.021,-1357.907,-922.164,-27138,-0.00029,-0.00016,50.15474,238.512,,0.0,-0.00146,-0.00455,22.86752,71.46143,,,,,,,,,,,,
0.0,3.0,50.00106,15423.076,-1357.906,-922.162,-27138.041,1e-05,0.0001,50.15408,238.261,,0.0,-0.00152,-0.00452,22.86745,71.46094,,,,,,,,,,,,
0.0,4.0,49.68956,15423.131,-1357.91,-922.162,-27138.041,0.00037,0.00043,49.82674,213.655,,0.0,-0.00148,-0.00453,22.86746,71.14943,,,,,,,,,,,,
0.0,4.0,48.86792,15423.186,-1357.906,-922.162,-27138,-0.0003,-0.00011,48.97641,169.078,,0.0,-0.0015,-0.00456,22.86752,70.32779,,,,,,,,,,,,
0.0,4.0,47.73179,15423.241,-1357.91,-922.161,-27138.04,-3e-05,-0.00017,47.81259,126.044,,0.0,-0.00148,-0.0045,22.86752,69.19166,,,,,,,,,,,,
0.0,4.0,46.4208,15423.296,-1357.906,-922.162,-27138,5e-05,0.00042,46.48059,93.39492,,0.0,-0.00145,-0.0045,22.86756,67.88067,,,,,,,,,,,,
0.0,4.0,45.02158,15423.351,-1357.91,-922.162,-27138.041,-0.00029,0.00023,45.06727,71.48204,,0.0,-0.00149,-0.00453,22.86759,66.48145,,,,,,,,,,,,
0.0,4.0,43.58854,15423.406,-1357.91,-922.162,-27138.041,-5e-05,-0.00025,43.62604,58.74893,,0.0,-0.0015,-0.00449,22.86757,65.04841,,,,,,,,,,,,
0.0,4.0,42.14986,15423.461,-1357.91,-922.162,-27138,0.00027,0.00066,42.18219,50.7269,,0.0,-0.00148,-0.00456,22.86749,63.60973,,,,,,,,,,,,
0.0,4.0,40.71196,15423.516,-1357.91,-922.163,-27138,-0.00034,0.00031,40.73968,43.54921,,0.0,-0.00151,-0.00451,22.8676,62.17184,,,,,,,,,,,,
0.0,4.0,39.28153,15423.571,-1357.91,-922.163,-27138.041,0.00034,-0.00032,39.30543,37.62006,,0.0,-0.00146,-0.00452,22.86759,60.7414,,,,,,,,,,,,
0.0,4.0,37.85849,15423.626,-1357.907,-922.163,-27138.042,0.00012,0.00016,37.87908,32.47302,,0.0,-0.00149,-0.0045,22.86752,59.31836,,,,,,,,,,,,
0.0,4.0,36.43872,15423.681,-1357.906,-922.162,-27138.04,-0.00031,0.00037,36.45584,27.08834,,0.0,-0.00154,-0.00449,22.86756,57.89859,,,,,,,,,,,,
0.0,4.0,35.02378,15423.736,-1357.91,-922.162,-27138,-0.00014,0.00011,35.03772,22.14432,,0.0,-0.00146,-0.00455,22.86751,56.48365,,,,,,,,,,,,
0.0,4.0,33.61475,15423.791,-1357.907,-922.163,-27138.041,0.00015,0.00012,33.62569,17.48373,,0.0,-0.0015,-0.00452,22.86769,55.07462,,,,,,,,,,,,
0.0,4.0,32.20631,15423.846,-1357.907,-922.162,-27138,-0.00034,0.00037,32.21412,12.62202,,0.0,-0.00152,-0.00454,22.86748,53.66618,,,,,,,,,,,,
0.0,4.0,30.80083,15423.901,-1357.91,-922.162,-27138.04,0.00014,0.00018,30.80576,8.14613,,0.0,-0.00151,-0.00453,22.86743,52.2607,,,,,,,,,,,,
0.0,4.0,29.39894,15423.956,-1357.91,-922.162,-27138,-7e-05,0.00044,29.40108,3.80104,,0.0,-0.00146,-0.00452,22.86747,50.85882,,,,,,,,,,,,
0.0,4.0,27.99768,15424.011,-1357.907,-922.163,-27138.041,0.0001,0.00079,27.99715,-0.35234,,0.0,-0.00146,-0.00453,22.86758,49.45755,,,,,,,,,,,,
0.0,4.0,26.59601,15424.066,-1357.906,-922.163,-27138,-0.0,-0.00015,26.59488,-1.28292,,0.0,-0.00148,-0.00457,22.86759,48.05589,,,,,,,,,,,,
0.0,4.0,25.19829,15424.121,-1357.907,-922.162,-27138,4e-05,3e-05,25.19708,-1.40989,,0.0,-0.00141,-0.00452,22.86752,46.65817,,,,,,,,,,,,
0.0,4.0,23.80029,15424.176,-1357.91,-922.162,-27138.041,-8e-05,-0.00022,23.79898,-1.55663,,0.0,-0.00148,-0.00449,22.8676,45.26016,,,,,,,,,,,,
0.0,4.0,22.4048,15424.231,-1357.91,-922.162,-27138.041,-0.00022,0.00016,22.40339,-1.70175,,0.0,-0.0015,-0.00452,22.86775,43.86467,,,,,,,,,,,,
0.0,4.0,21.01134,15424.286,-1357.907,-922.163,-27138.04,7e-05,3e-05,21.00984,-1.85075,,0.0,-0.00149,-0.00451,22.86766,42.47122,,,,,,,,,,,,
0.0,4.0,19.61698,15424.341,-1357.91,-922.164,-27138,0.00038,0.00021,19.61538,-2.00208,,0.0,-0.00146,-0.00449,22.86766,41.07685,,,,,,,,,,,,
0.0,4.0,18.22436,15424.396,-1357.907,-922.163,-27138.041,-0.00034,0.00064,18.22266,-2.14955,,0.0,-0.00148,-0.00456,22.86754,39.68423,,,,,,,,,,,,
0.0,4.0,16.83372,15424.451,-1357.907,-922.162,-27138.04,1e-05,0.00063,16.83194,-2.28889,,0.0,-0.00153,-0.00453,22.86766,38.29359,,,,,,,,,,,,
0.0,4.0,15.44168,15424.506,-1357.907,-922.163,-27138.041,5e-05,8e-05,15.4398,-2.44268,,0.0,-0.00147,-0.00456,22.86765,36.90155,,,,,,,,,,,,
0.0,4.0,14.05181,15424.561,-1357.907,-922.163,-27138.039,5e-05,0.00017,14.04983,-2.59123,,0.0,-0.00147,-0.00451,22.8677,35.51168,,,,,,,,,,,,
0.0,4.0,12.66359,15424.616,-1357.91,-922.161,-27138.04,-0.00031,1e-05,12.66152,-2.73455,,0.0,-0.00148,-0.00452,22.86764,34.12346,,,,,,,,,,,,
0.0,4.0,11.27436,15424.671,-1357.907,-922.163,-27138,0.00011,0.00021,11.2722,-2.88105,,0.0,-0.00152,-0.00454,22.86742,32.73423,,,,,,,,,,,,
0.0,4.0,9.88653,15424.726,-1357.907,-922.162,-27138.039,-0.00016,4e-05,9.88428,-3.02338,,0.0,-0.00147,-0.00455,22.86768,31.3464,,,,,,,,,,,,
0.0,4.0,8.5015,15424.781,-1357.91,-922.163,-27138,7e-05,0.0006,8.49916,-3.16267,,0.0,-0.00147,-0.00451,22.86766,29.96138,,,,,,,,,,,,
0.0,4.0,7.1153,15424.836,-1357.91,-922.163,-27138,0.00027,-0.0,7.11286,-3.31059,,0.0,-0.00149,-0.00455,22.86769,28.57518,,,,,,,,,,,,
0.0,4.0,5.73052,15424.891,-1357.91,-922.162,-27138,7e-05,-8e-05,5.728,-3.4466,,0.0,-0.00147,-0.00455,22.86771,27.1904,,,,,,,,,,,,
0.0,4.0,4.34881,15424.946,-1357.91,-922.162,-27138,-0.00027,0.00052,4.34619,-3.59952,,0.0,-0.00155,-0.00457,22.86766,25.80869,,,,,,,,,,,,
0.0,4.0,2.96625,15425.001,-1357.907,-922.162,-27138.039,0.00015,0.00036,2.96354,-3.73141,,0.0,-0.00148,-0.00454,22.8677,24.42613,,,,,,,,,,,,
0.0,4.0,1.58583,15425.056,-1357.907,-922.162,-27138,-0.00037,-0.00015,1.58303,-3.87562,,0.0,-0.00148,-0.00454,22.86769,23.0457,,,,,,,,,,,,
0.0,4.0,0.41128,15425.111,-1357.91,-922.163,-27138.04,0.00019,0.00028,0.4084,-3.99931,,0.0,-0.00145,-0.00454,22.86763,21.87115,,,,,,,,,,,,
0.0,4.0,0.19959,15425.131,-1357.906,-922.162,-27138,0.00011,-3e-05,0.1967,-4.01726,,0.0,-0.00147,-0.00451,22.86759,21.65947,,,,,,,,,,,,