File: dataset_example/processed_data/ForceRelax_example/data/data_1_Measurements/GMM Fitting Results/data_1_5_GMM Fit.csv
Index [#],Phase [#],Displacement [um],Time [s],Pos X [um],Pos Y [um],Pos Z [um],Piezo X [um],Piezo Y [um],Piezo Z [um],Force A [uN],Force B [uN],Gripper [V],Voltage A [V],Voltage B [V],Temperature [oC],Sample Displacement [um],Filtered time [uN},Filtered force [uN],SG Force [uN],Est Force 2nd derivative,Filtered displacement [um],Sel Time [s],Sel Force [N],Sel Modulus Uncorrected [Pa],Sel Modulus Corrected [Pa],Sel Modulus GMM Fit [Pa],Sel Time Normalised [s m-2],Sel Force Normalised []
4.0,2.0,0.00864,15497.9,-857.904,-422.165,-27142.445,0.00063,-0.00035,-0.0586,-0.10268,,0.0,-0.00148,-0.00454,22.87592,-5.51948,15497.9,-0.10268,-0.108681,0.000385319,-0.0586,0.0,0.000249776,115546,115546,116833,0.0,1.0
4.0,2.0,0.51336,15498,-857.9039,-422.164,-27142.4,-0.00024,0.00047,0.44614,-0.06034,,0.0,-0.00147,-0.00454,22.87594,-5.01476,15498,-0.06034,-0.0693792,0.000385319,0.44614,0.055,0.000237774,109994,109994,109528,6434998375506499.0,0.788701
4.0,2.0,1.47862,15498,-857.903,-422.164,-27142.448,-0.00044,-0.00061,1.41145,0.01237,,0.0,-0.0015,-0.00457,22.87581,-4.0495,15498,0.01237,0.0182322,0.000126031,1.41145,0.11,0.000226312,104692,104692,104949,1.287e+16,0.5869
4.0,2.0,2.69567,15498.1,-857.903,-422.166,-27142.4,0.00097,-0.0004,2.62857,0.12043,,0.0,-0.00154,-0.00454,22.87584,-2.83245,15498.1,0.12043,0.119324,1.12497e-05,2.62857,0.165,0.000220322,101921,101921,102044,1.9305e+16,0.481439
4.0,2.0,4.06698,15498.1,-857.904,-422.165,-27142.448,-0.00043,0.0002,3.99995,0.21733,,0.0,-0.00151,-0.00452,22.87579,-1.46114,15498.1,0.21733,0.221474,4.37003e-05,3.99995,0.22,0.000216516,100160,100160,100168,2.574e+16,0.414421
4.0,2.0,5.48794,15498.2,-857.9031,-422.164,-27142.45,0.0007,-1e-05,5.42097,0.32627,,0.0,-0.00153,-0.0045,22.8758,-0.04018,15498.2,0.32627,0.329816,7.82712e-06,5.42097,0.275,0.000213541,98783.8,98783.8,98927.9,3.2175e+16,0.362041
4.0,2.0,6.91642,15498.2,-857.902,-422.165,-27142.45,0.00011,-0.00085,6.84953,0.4457,,0.0,-0.00148,-0.00451,22.87598,1.3883,15498.2,0.4457,0.438734,-7.86241e-06,6.84953,0.33,0.0002121846,98156.5,98156.5,98080.9,3.861e+16,0.338168
4.0,2.0,8.34265,15498.3,-857.9032,-422.164,-27142.452,0.0005,-0.00036,8.27583,0.54618,,0.0,-0.00148,-0.00448,22.87588,2.81453,15498.3,0.54618,0.546628,3.3983e-05,8.27583,0.385,0.000210975,97597,97597,97479.6,4.5045e+16,0.316875
4.0,2.0,9.7627,15498.3,-857.904,-422.164,-27142.452,0.0003,-9e-05,9.69595,0.65868,,0.0,-0.0015,-0.00447,22.87597,4.23458,15498.3,0.65868,0.655998,5.76539e-05,9.69595,0.44,0.00020962,96970.2,96970.2,97033,5.148e+16,0.293018
4.0,2.0,11.17392,15498.4,-857.903,-422.165,-27142.452,-0.00041,0.00052,11.10723,0.7661,,0.0,-0.00149,-0.00449,22.87588,5.6458,15498.4,0.7661,0.770238,-4.05687e-05,11.10723,0.495,0.000209177,96765.3,96765.3,96685.3,5.7915e+16,0.285219
4.0,2.0,12.58101,15498.4,-857.904,-422.165,-27142.453,0.00041,-0.00052,12.5144,0.88303,,0.0,-0.00146,-0.0045,22.87586,7.05289,15498.4,0.88303,0.881153,3.82653e-06,12.5144,0.55,0.000208737,96561.5,96561.5,96402,6.435e+16,0.277463
4.0,2.0,13.98399,15498.5,-857.904,-422.165,-27142.5,0.00027,-0.00048,13.91746,1.00491,,0.0,-0.00146,-0.00455,22.87595,8.45587,15498.5,1.00491,0.988444,5.94533e-05,13.91746,0.605,0.000207647,96057.6,96057.6,96161.8,7.0785e+16,0.258284
4.0,2.0,15.38157,15498.6,-857.904,-422.164,-27142.5,-6e-05,-0.00018,15.3151,1.09056,,0.0,-0.00151,-0.00451,22.8757,9.85345,15498.6,1.09056,1.09798,-9.65778e-06,15.3151,0.66,0.0002074889,95984.3,95984.3,95951.5,7.722e+16,0.255495
4.0,2.0,16.77724,15498.6,-857.905,-422.164,-27142.5,-0.00022,-0.00033,16.71084,1.20643,,0.0,-0.00149,-0.0045,22.87587,11.24912,15498.6,1.20643,1.20153,-0.0004634,16.71084,0.715,0.000207234,95866.3,95866.3,95762.6,8.3655e+16,0.251004
4.0,2.0,18.17079,15498.7,-857.904,-422.165,-27142.456,0.00035,-0.00067,18.10442,1.2577,,0.0,-0.00147,-0.00448,22.87591,12.64267,15498.7,1.2577,1.25521,0.000370868,18.10442,0.77,0.000206351,95457.9,95457.9,95590,9.009e+16,0.235462
4.0,2.0,19.56009,15498.7,-857.903,-422.163,-27142.5,-0.00026,-0.00013,19.49377,1.339,,0.0,-0.00146,-0.00447,22.87574,14.03197,15498.7,1.339,1.34489,-8.20334e-05,19.49377,0.825,0.000206261,95416.4,95416.4,95430.1,9.6525e+16,0.233881
4.0,2.0,20.94822,15498.8,-857.904,-422.165,-27142.456,-0.00016,-0.00084,20.88196,1.42454,,0.0,-0.00156,-0.0045,22.87584,15.4201,15498.8,1.42454,1.43599,5.04657e-05,20.88196,0.88,0.000206229,95401.4,95401.4,95280.7,1.0296e+17,0.233311
4.0,2.0,22.33605,15498.8,-857.904,-422.1639,-27142.457,-0.00011,-0.00016,22.26987,1.54039,,0.0,-0.00148,-0.00447,22.87581,16.80793,15498.8,1.54039,1.53553,-2.97795e-05,22.26987,0.935,0.000205316,94979.2,94979.2,95140.1,1.09395e+17,0.217244
4.0,2.0,23.72036,15498.9,-857.903,-422.164,-27142.458,-0.00063,-0.00051,23.65423,1.62991,,0.0,-0.00149,-0.00452,22.87581,18.19224,15498.9,1.62991,1.63474,-4.97412e-05,23.65423,0.99,0.000205201,94926,94926,95007.3,1.1583e+17,0.215216
4.0,2.0,25.10403,15498.9,-857.904,-422.164,-27142.5,7e-05,4e-05,25.03797,1.72519,,0.0,-0.00142,-0.00448,22.87603,19.57591,15498.9,1.72519,1.67807,0.00465945,25.03797,1.045,0.000205414,95024.6,95024.6,94881.5,1.22265e+17,0.218972
4.0,2.0,26.48723,15499,-857.904,-422.165,-27142.458,0.00125,-0.00023,26.42146,2.19759,,0.0,-0.0015,-0.00448,22.87581,20.95911,15499,2.19759,2.41469,0.0488613,26.42146,1.1,0.000204589,94642.8,94642.8,94762,1.287e+17,0.204441
4.0,2.0,27.86496,15499.1,-857.904,-422.166,-27142.5,-0.0009,-0.0,27.80361,9.04929,,0.0,-0.00142,-0.00452,22.87592,22.33684,15499.1,9.04929,8.99402,0.0357778,27.80361,1.155,0.000204384,94548.2,94548.2,94648.2,1.35135e+17,0.200838
4.0,2.0,29.24147,15499.1,-857.903,-422.164,-27142.457,-0.00026,-0.00023,29.1872,20.05033,,0.0,-0.00153,-0.00452,22.87597,23.71335,15499.1,20.05033,20.1033,0.0122341,29.1872,1.21,0.0002047052,94696.5,94696.5,94539.7,1.4157e+17,0.206484
4.0,2.0,30.62135,15499.2,-857.904,-422.165,-27142.46,0.00045,8e-05,30.57523,32.71874,,0.0,-0.00145,-0.0045,22.87605,25.09323,15499.2,32.71874,32.6023,0.00523007,30.57523,1.265,0.000203863,94306.7,94306.7,94436.2,1.48005e+17,0.191649
4.0,2.0,31.99821,15499.2,-857.904,-422.165,-27142.46,-0.00035,-0.00035,31.96044,45.69785,,0.0,-0.00145,-0.0045,22.87585,26.47009,15499.2,45.69785,45.7167,0.00922996,31.96044,1.32,0.000203867,94308.7,94308.7,94337.3,1.5444e+17,0.191722
4.0,2.0,33.37448,15499.3,-857.904,-422.165,-27142.5,0.00042,-0.00033,33.34583,59.88208,,0.0,-0.00149,-0.00451,22.8761,27.84636,15499.3,59.88208,59.9433,0.00490735,33.34583,1.375,0.000204076,94405.3,94405.3,94242.7,1.60875e+17,0.195401
4.0,2.0,34.75204,15499.3,-857.904,-422.164,-27142.459,-0.00075,2e-05,34.73309,74.94886,,0.0,-0.00148,-0.00451,22.87604,29.22392,15499.3,74.94886,74.7481,-0.000302246,34.73309,1.43,0.000203201,94000.8,94000.8,94152.2,1.6731e+17,0.180004
4.0,2.0,36.1279,15499.4,-857.903,-422.165,-27142.5,-0.0003,-0.0001,36.11826,89.41041,,0.0,-0.00143,-0.00454,22.87603,30.59978,15499.4,89.41041,89.5122,0.00495948,36.11826,1.485,0.000203272,94033.6,94033.6,94065.4,1.73745e+17,0.181253
4.0,2.0,37.50217,15499.4,-857.904,-422.165,-27142.462,-0.00052,-0.00034,37.50242,104.7785,,0.0,-0.00143,-0.00454,22.87585,31.97405,15499.4,104.7785,104.88,0.00329217,37.50242,1.54,0.000203451,94116.2,94116.2,93982.1,1.8018e+17,0.184398
4.0,2.0,38.87772,15499.5,-857.904,-422.165,-27142.462,0.00014,-0.00033,38.88835,120.918,,0.0,-0.00145,-0.00453,22.8761,33.3496,15499.5,120.918,120.691,0.0042446,38.88835,1.595,0.000202658,93749.6,93749.6,93902.1,1.86615e+17,0.170445
4.0,2.0,40.25076,15499.5,-857.904,-422.163,-27142.462,0.00067,-7e-05,40.27169,136.909,,0.0,-0.00154,-0.00453,22.87597,34.72264,15499.5,136.909,136.989,0.00312385,40.27169,1.65,0.000202806,93817.9,93817.9,93825.3,1.9305e+17,0.173045
4.0,2.0,41.62328,15499.6,-857.904,-422.1651,-27142.5,-0.00089,-4e-05,41.6549,153.518,,0.0,-0.00149,-0.00448,22.87596,36.09516,15499.6,153.518,153.68,0.00301209,41.6549,1.705,0.000202973,93895.1,93895.1,93751.4,1.99485e+17,0.175983
4.0,2.0,42.99694,15499.7,-857.904,-422.165,-27142.463,0.00058,-0.00025,43.03983,171.041,,0.0,-0.0015,-0.0045,22.87602,37.46882,15499.7,171.041,170.759,0.00417185,43.03983,1.76,0.000202167,93522.4,93522.4,93680.2,2.0592e+17,0.1618
4.0,2.0,44.36712,15499.7,-857.903,-422.164,-27142.462,-0.00036,-0.0004,44.421,188.109,,0.0,-0.00147,-0.00451,22.87606,38.839,15499.7,188.109,188.345,0.00568098,44.421,1.815,0.000202518,93684.6,93684.6,93611.6,2.12355e+17,0.167971
4.0,2.0,45.7377,15499.8,-857.904,-422.166,-27142.463,0.00023,-0.0003,45.80345,206.571,,0.0,-0.00149,-0.00454,22.87611,40.20958,15499.8,206.571,206.597,0.00627772,45.80345,1.87,0.000202512,93681.9,93681.9,93545.5,2.1879e+17,0.167869
4.0,2.0,47.10737,15499.8,-857.9031,-422.165,-27142.5,0.00156,-0.00051,47.18561,225.976,,0.0,-0.00142,-0.0045,22.87603,41.57925,15499.8,225.976,225.614,0.0110419,47.18561,1.925,0.000201911,93404,93404,93481.6,2.25225e+17,0.157292
4.0,2.0,48.47311,15499.9,-857.904,-422.164,-27142.5,0.00031,-0.00089,48.5641,245.779,,0.0,-0.00148,-0.00454,22.87616,42.94499,15499.9,245.779,245.706,0.00700808,48.5641,1.98,0.0002020907,93487.1,93487.1,93419.9,2.3166e+17,0.160453
4.0,3.0,49.52972,15499.9,-857.904,-422.164,-27142.5,0.00113,-0.00033,49.62125,246.627,,0.0,-0.00149,-0.00454,22.87603,44.0016,,,,,,2.035,0.000201969,93430.6,93430.6,93360.2,2.38095e+17,0.158304
4.0,3.0,49.92696,15500,-857.904,-422.165,-27142.463,-0.00023,3e-05,50.01038,234.023,,0.0,-0.0015,-0.00452,22.87578,44.39884,,,,,,2.09,0.000201306,93124,93124,93302.4,2.4453e+17,0.146635
4.0,3.0,50.05305,15500,-857.904,-422.1641,-27142.5,0.00045,-0.00057,50.13089,225.334,,0.0,-0.00149,-0.00448,22.87607,44.52494,,,,,,2.145,0.000201535,93230.2,93230.2,93246.4,2.50965e+17,0.150678
4.0,3.0,50.08253,15500.1,-857.903,-422.165,-27142.463,-0.00038,7e-05,50.1572,220.4193,,0.0,-0.00146,-0.00449,22.8761,44.55441,,,,,,2.2,0.000201614,93266.5,93266.5,93192.2,2.574e+17,0.152059
4.0,3.0,50.08158,15500.2,-857.904,-422.165,-27142.464,-0.00016,0.00068,50.15465,217.929,,0.0,-0.00145,-0.00452,22.87605,44.55346,,,,,,2.255,0.000201099,93028.5,93028.5,93139.5,2.63835e+17,0.142999
4.0,3.0,50.07004,15500.2,-857.904,-422.163,-27142.464,0.00021,-2e-05,50.14154,215.495,,0.0,-0.00149,-0.00447,22.87605,44.54192,,,,,,2.31,0.0002010686,93014.2,93014.2,93088.4,2.7027e+17,0.142458
4.0,3.0,50.05888,15500.3,-857.903,-422.164,-27142.464,-0.00077,0.00014,50.1295,214.136,,0.0,-0.00144,-0.00449,22.87611,44.53076,,,,,,2.365,0.000201261,93103.2,93103.2,93038.7,2.76705e+17,0.145842
4.0,3.0,50.04966,15500.3,-857.904,-422.166,-27142.465,0.00032,0.00039,50.11978,213.356,,0.0,-0.00145,-0.00448,22.87604,44.52154,,,,,,2.42,0.00020085,92913.3,92913.3,92990.3,2.8314e+17,0.138617
4.0,3.0,50.04137,15500.4,-857.904,-422.165,-27142.464,-0.00045,-0.00018,50.11074,212.179,,0.0,-0.0015,-0.00449,22.87609,44.51325,,,,,,2.475,0.000200941,92955.3,92955.3,92943.3,2.89575e+17,0.140213
4.0,3.0,50.03514,15500.4,-857.903,-422.165,-27142.464,-7e-05,-0.00071,50.10398,211.359,,0.0,-0.00151,-0.00452,22.87608,44.50702,,,,,,2.53,0.000201053,93007.1,93007.1,92897.4,2.9601e+17,0.142185
4.0,3.0,50.03149,15500.5,-857.904,-422.164,-27142.466,-3e-05,0.00019,50.10024,211.221,,0.0,-0.00149,-0.00448,22.87586,44.50337,,,,,,2.585,0.00020048,92742.1,92742.1,92852.7,3.02445e+17,0.132099
4.0,3.0,50.02775,15500.5,-857.904,-422.164,-27142.465,-0.00045,-0.00018,50.09596,210.383,,0.0,-0.00157,-0.00447,22.87602,44.49963,,,,,,2.64,0.000200587,92791.7,92791.7,92809.1,3.0888e+17,0.133986
4.0,3.0,50.02464,15500.6,-857.903,-422.1649,-27142.465,0.00034,-0.00076,50.09247,209.7849,,0.0,-0.00152,-0.00451,22.87596,44.49652,,,,,,2.695,0.000200854,92914.9,92914.9,92766.6,3.15315e+17,0.138676
4.0,3.0,50.02334,15500.6,-857.903,-422.165,-27142.465,-0.00038,0.0004,50.09117,209.804,,0.0,-0.00158,-0.00451,22.87596,44.49522,,,,,,2.75,0.000200287,92652.7,92652.7,92725,3.2175e+17,0.128697
4.0,3.0,50.02159,15500.7,-857.903,-422.165,-27142.465,-0.00012,0.0005,50.08908,209.257,,0.0,-0.00154,-0.00449,22.87608,44.49347,,,,,,2.805,0.000200273,92646.3,92646.3,92684.4,3.28185e+17,0.128455
4.0,3.0,50.01956,15500.8,-857.904,-422.165,-27142.465,8e-05,0.00033,50.08662,208.592,,0.0,-0.00157,-0.00451,22.87627,44.49144,,,,,,2.86,0.000200604,92799.3,92799.3,92644.7,3.3462e+17,0.134278
4.0,3.0,50.01902,15500.8,-857.904,-422.1639,-27142.5,-6e-05,0.00038,50.08615,208.703,,0.0,-0.00154,-0.00449,22.87625,44.4909,,,,,,2.915,0.000199943,92493.4,92493.4,92605.8,3.41055e+17,0.122635
4.0,3.0,50.01818,15500.9,-857.904,-422.165,-27142.464,0.00038,0.00082,50.0851,208.367,,0.0,-0.00148,-0.00448,22.87611,44.49006,,,,,,2.97,0.00019991,92478.2,92478.2,92567.7,3.4749e+17,0.122057
4.0,3.0,50.01629,15500.9,-857.904,-422.1641,-27142.5,-0.00055,-0.00049,50.08268,207.55,,0.0,-0.00144,-0.00446,22.87618,44.48817,,,,,,3.025,0.000200362,92687.5,92687.5,92530.4,3.53925e+17,0.130023
4.0,3.0,50.01654,15501,-857.903,-422.164,-27142.465,0.00093,-0.00039,50.08314,207.874,,0.0,-0.00149,-0.00449,22.87638,44.48842,,,,,,3.08,0.000199843,92447.2,92447.2,92493.9,3.6036e+17,0.120875
4.0,3.0,50.01619,15501,-857.904,-422.1632,-27142.464,0.00015,-6e-05,50.08263,207.637,,0.0,-0.00148,-0.00447,22.87608,44.48807,,,,,,3.135,0.000199573,92322.5,92322.5,92458,3.66795e+17,0.116131
4.0,3.0,50.01452,15501.1,-857.903,-422.165,-27142.464,0.00016,1e-05,50.08046,206.846,,0.0,-0.00148,-0.00451,22.87618,44.48641,,,,,,3.19,0.000200156,92592,92592,92422.9,3.7323e+17,0.12639
4.0,3.0,50.01476,15501.1,-857.903,-422.165,-27142.465,0.00059,-2e-05,50.08089,207.151,,0.0,-0.0015,-0.00452,22.87616,44.48665,,,,,,3.245,0.000199673,92368.6,92368.6,92388.3,3.79665e+17,0.117884
4.0,3.0,50.01444,15501.2,-857.904,-422.165,-27142.464,-0.0004,2e-05,50.08037,206.844,,0.0,-0.00151,-0.00452,22.87609,44.48632,,,,,,3.3,0.00019953,92302.4,92302.4,92354.4,3.861e+17,0.115367
4.0,3.0,50.01314,15501.3,-857.904,-422.1641,-27142.5,-5e-05,-0.00018,50.07866,206.209,,0.0,-0.00149,-0.00449,22.87595,44.48502,,,,,,3.355,0.000199971,92506.3,92506.3,92321.1,3.92535e+17,0.123128
4.0,3.0,50.01345,15501.3,-857.904,-422.164,-27142.465,-0.00016,-0.00024,50.07917,206.516,,0.0,-0.00154,-0.0045,22.87599,44.48533,,,,,,3.41,0.00019937,92228.4,92228.4,92288.4,3.9897e+17,0.11255
4.0,3.0,50.01317,15501.4,-857.9031,-422.164,-27142.466,0.00019,0.00034,50.0787,206.23,,0.0,-0.00143,-0.0045,22.87634,44.48505,,,,,,3.465,0.000199118,92112,92112,92256.2,4.05405e+17,0.108118
4.0,3.0,50.01246,15501.4,-857.905,-422.165,-27142.466,-0.00032,-4e-05,50.07769,205.766,,0.0,-0.0015,-0.00451,22.87618,44.48434,,,,,,3.52,0.0001996737,92369,92369,92224.5,4.1184e+17,0.117899
4.0,3.0,50.01329,15501.5,-857.904,-422.165,-27142.466,0.00013,0.00011,50.07883,206.225,,0.0,-0.00147,-0.00447,22.87613,44.48517,,,,,,3.575,0.00019915,92126.8,92126.8,92193.4,4.18275e+17,0.108682
4.0,3.0,50.01251,15501.5,-857.904,-422.165,-27142.465,0.00105,-0.00025,50.07772,205.712,,0.0,-0.00147,-0.00452,22.87608,44.48439,,,,,,3.63,0.000199004,92059.3,92059.3,92162.7,4.2471e+17,0.106114
4.0,3.0,50.01135,15501.6,-857.904,-422.165,-27142.5,-0.00066,-0.00027,50.07623,205.211,,0.0,-0.00146,-0.00446,22.8763,44.48323,,,,,,3.685,0.000199505,92290.8,92290.8,92132.5,4.31145e+17,0.114924
4.0,3.0,50.0122,15501.6,-857.904,-422.164,-27142.466,0.0003,3e-05,50.0774,205.706,,0.0,-0.00148,-0.00449,22.87635,44.48408,,,,,,3.74,0.000198697,91916.9,91916.9,92102.8,4.3758e+17,0.100695
4.0,3.0,50.01137,15501.7,-857.904,-422.165,-27142.5,-0.00097,-0.00029,50.07619,205.113,,0.0,-0.00149,-0.00449,22.87618,44.48325,,,,,,3.795,0.000198718,91926.9,91926.9,92073.5,4.44015e+17,0.101076
4.0,3.0,50.0109,15501.7,-857.904,-422.164,-27142.468,0.00049,2e-05,50.07558,204.892,,0.0,-0.00147,-0.00442,22.87624,44.48278,,,,,,3.85,0.000199314,92202.5,92202.5,92044.6,4.5045e+17,0.111565
4.0,3.0,50.01149,15501.8,-857.904,-422.164,-27142.5,-0.00042,0.00022,50.07636,205.19,,0.0,-0.00144,-0.00449,22.87624,44.48337,,,,,,3.905,0.00019876,91946.1,91946.1,92016.1,4.56885e+17,0.101806
4.0,3.0,50.0103,15501.9,-857.904,-422.165,-27142.466,0.00029,1e-05,50.07471,204.486,,0.0,-0.00144,-0.0045,22.87605,44.48218,,,,,,3.96,0.000198618,91880.4,91880.4,91988.1,4.6332e+17,0.099305
4.0,3.0,50.01008,15501.9,-857.904,-422.1649,-27142.5,0.00027,-0.00043,50.07443,204.398,,0.0,-0.00148,-0.00449,22.87629,44.48196,,,,,,4.015,0.00019907,92089.8,92089.8,91960.4,4.69755e+17,0.107273
4.0,3.0,50.01119,15502,-857.904,-422.165,-27142.468,0.00011,0.00027,50.07585,204.858,,0.0,-0.00149,-0.00449,22.87607,44.48307,,,,,,4.07,0.000198534,91841.9,91841.9,91933.1,4.7619e+17,0.0978407
4.0,3.0,50.00958,15502,-857.904,-422.165,-27142.5,0.0004,-0.00012,50.07377,204.137,,0.0,-0.00151,-0.00452,22.87625,44.48146,,,,,,4.125,0.000198595,91870,91870,91906.1,4.82625e+17,0.098908
4.0,3.0,50.00988,15502.1,-857.903,-422.164,-27142.469,-0.00025,-0.00026,50.07404,204.096,,0.0,-0.00152,-0.00449,22.8761,44.48176,,,,,,4.18,0.000198895,92008.9,92008.9,91879.6,4.8906e+17,0.104197
4.0,3.0,50.01076,15502.1,-857.9031,-422.165,-27142.5,1e-05,0.00016,50.0752,204.536,,0.0,-0.00147,-0.00442,22.87618,44.48264,,,,,,4.235,0.000198313,91739.6,91739.6,91853.3,4.95495e+17,0.0939457
4.0,3.0,50.00998,15502.2,-857.903,-422.165,-27142.469,-0.0001,-7e-05,50.0741,204.02,,0.0,-0.00148,-0.00447,22.87615,44.48186,,,,,,4.29,0.000198381,91770.8,91770.8,91827.4,5.0193e+17,0.0951327
4.0,3.0,50.00914,15502.2,-857.903,-422.165,-27142.5,7e-05,-0.00068,50.07304,203.6815,,0.0,-0.00149,-0.00447,22.87624,44.48102,,,,,,4.345,0.000198705,91920.8,91920.8,91801.8,5.08365e+17,0.100842
4.0,3.0,50.01025,15502.3,-857.904,-422.165,-27142.468,0.00012,0.00046,50.07447,204.189,,0.0,-0.00147,-0.00453,22.8764,44.48213,,,,,,4.4,0.000198278,91723.3,91723.3,91776.5,5.148e+17,0.0933238
4.0,3.0,50.0098,15502.4,-857.904,-422.1641,-27142.5,-0.00038,-6e-05,50.07377,203.789,,0.0,-0.0015,-0.00449,22.87611,44.48168,,,,,,4.455,0.0001981319,91655.7,91655.7,91751.6,5.21235e+17,0.0907538
4.0,3.0,50.00893,15502.4,-857.904,-422.163,-27142.469,0.00055,-0.00051,50.07266,203.412,,0.0,-0.00148,-0.00451,22.87621,44.48081,,,,,,4.51,0.000198558,91853,91853,91726.9,5.2767e+17,0.0982615
4.0,3.0,50.00963,15502.5,-857.904,-422.165,-27142.5,0.00015,9e-05,50.07352,203.679,,0.0,-0.00148,-0.00448,22.87616,44.48151,,,,,,4.565,0.000198213,91693.3,91693.3,91702.5,5.34105e+17,0.0921854
4.0,3.0,50.00972,15502.5,-857.903,-422.164,-27142.468,0.00027,0.00042,50.07356,203.593,,0.0,-0.00152,-0.00446,22.87628,44.4816,,,,,,4.62,0.000197854,91527.3,91527.3,91678.5,5.4054e+17,0.0858676
4.0,3.0,50.00887,15502.6,-857.904,-422.165,-27142.5,2e-05,-5e-05,50.07242,203.141,,0.0,-0.00152,-0.00447,22.87619,44.48075,,,,,,4.675,0.000198346,91754.7,91754.7,91654.7,5.46975e+17,0.0945223
4.0,3.0,50.00941,15502.6,-857.904,-422.164,-27142.468,-9e-05,4e-05,50.07314,203.421,,0.0,-0.00156,-0.00451,22.87638,44.48129,,,,,,4.73,0.00019821,91691.9,91691.9,91631.1,5.5341e+17,0.0921322
4.0,3.0,50.00947,15502.7,-857.904,-422.164,-27142.469,0.00021,-1e-05,50.07314,203.335,,0.0,-0.00153,-0.00443,22.87627,44.48135,,,,,,4.785,0.000197659,91437.1,91437.1,91607.9,5.59845e+17,0.0824316
4.0,3.0,50.0084,15502.7,-857.904,-422.164,-27142.469,-0.00029,-0.0001,50.07173,202.794,,0.0,-0.00152,-0.0045,22.87627,44.48028,,,,,,4.84,0.000198191,91683.2,91683.2,91584.9,5.6628e+17,0.0917984
4.0,3.0,50.00918,15502.8,-857.903,-422.1641,-27142.5,2e-05,-0.00024,50.07277,203.192,,0.0,-0.00148,-0.00447,22.87622,44.48107,,,,,,4.895,0.000197966,91579.2,91579.2,91562.2,5.72715e+17,0.0878413
4.0,3.0,50.00945,15502.8,-857.903,-422.164,-27142.469,0.00033,0.00016,50.07301,203.165,,0.0,-0.00151,-0.0045,22.87632,44.48133,,,,,,4.95,0.00019754,91382,91382,91539.7,5.7915e+17,0.0803356
4.0,3.0,50.00821,15502.9,-857.9031,-422.164,-27142.5,-0.00037,0.00014,50.07135,202.519,,0.0,-0.00147,-0.00448,22.87643,44.48009,,,,,,5.005,0.000198022,91604.8,91604.8,91517.5,5.85585e+17,0.0888159
4.0,3.0,50.00877,15503,-857.905,-422.165,-27142.469,0.00035,-0.00011,50.07215,202.879,,0.0,-0.00153,-0.00445,22.8764,44.48065,,,,,,5.06,0.000197907,91551.5,91551.5,91495.5,5.9202e+17,0.0867865
4.0,3.0,50.00927,15503,-857.904,-422.1641,-27142.469,0.00024,0.00067,50.07273,203.008,,0.0,-0.00144,-0.00445,22.87625,44.48115,,,,,,5.115,0.000197391,91312.9,91312.9,91473.8,5.98455e+17,0.0777052
4.0,3.0,50.00807,15503.1,-857.903,-422.164,-27142.468,-9e-05,-7e-05,50.07106,202.262,,0.0,-0.00147,-0.00451,22.8763,44.47995,,,,,,5.17,0.000197968,91579.7,91579.7,91452.2,6.0489e+17,0.0878622
4.0,3.0,50.00865,15503.1,-857.904,-422.165,-27142.5,0.00011,-0.00025,50.07189,202.662,,0.0,-0.0015,-0.0045,22.87633,44.48053,,,,,,5.225,0.000197784,91494.9,91494.9,91431,6.11325e+17,0.0846324
4.0,3.0,50.0093,15503.2,-857.904,-422.164,-27142.469,-0.00012,0.00021,50.07264,202.819,,0.0,-0.00153,-0.00452,22.87637,44.48118,,,,,,5.28,0.00019721,91229.3,91229.3,91409.9,6.1776e+17,0.0745245
4.0,3.0,50.0079,15503.2,-857.904,-422.1651,-27142.5,-0.0003,-0.00016,50.07074,202.034,,0.0,-0.0015,-0.00451,22.87636,44.47978,,,,,,5.335,0.000197824,91513.4,91513.4,91389.1,6.24195e+17,0.0853377
4.0,3.0,50.00814,15503.3,-857.903,-422.165,-27142.469,3e-05,-8e-05,50.07116,202.319,,0.0,-0.00149,-0.0045,22.87637,44.48002,,,,,,5.39,0.000197561,91391.4,91391.4,91368.5,6.3063e+17,0.0806939
4.0,3.0,50.00864,15503.3,-857.904,-422.164,-27142.5,-7e-05,0.00026,50.07177,202.501,,0.0,-0.00148,-0.00447,22.87643,44.48052,,,,,,5.445,0.000197068,91163.6,91163.6,91348.1,6.37065e+17,0.0720232
4.0,3.0,50.00771,15503.4,-857.904,-422.165,-27142.469,-8e-05,1e-05,50.0704,201.8117,,0.0,-0.0015,-0.00449,22.87653,44.47959,,,,,,5.5,0.000197641,91428.5,91428.5,91327.9,6.435e+17,0.0821052
4.0,3.0,50.00817,15503.5,-857.905,-422.1649,-27142.5,0.00068,8e-05,50.07109,202.164,,0.0,-0.00148,-0.00445,22.87638,44.48005,,,,,,5.555,0.000197471,91350,91350,91308,6.49935e+17,0.0791176
4.0,3.0,50.00876,15503.5,-857.903,-422.165,-27142.47,0.00066,0.00024,50.07177,202.308,,0.0,-0.00148,-0.00448,22.87623,44.48064,,,,,,5.61,0.000197073,91165.9,91165.9,91288.2,6.5637e+17,0.0721126
4.0,3.0,50.00767,15503.6,-857.9041,-422.164,-27142.469,0.00053,-0.0004,50.07028,201.678,,0.0,-0.00147,-0.00449,22.87636,44.47955,,,,,,5.665,0.000197589,91404.5,91404.5,91268.7,6.62805e+17,0.0811914
4.0,3.0,50.00827,15503.6,-857.904,-422.164,-27142.468,-0.00028,-0.00014,50.07112,202.057,,0.0,-0.00151,-0.00449,22.87646,44.48015,,,,,,5.72,0.000197263,91253.7,91253.7,91249.3,6.6924e+17,0.0754522
4.0,3.0,50.00848,15503.7,-857.904,-422.165,-27142.5,5e-05,-2e-05,50.07138,202.139,,0.0,-0.00151,-0.00448,22.87638,44.48036,,,,,,5.775,0.000196784,91032,91032,91230.2,6.75675e+17,0.0670164
4.0,3.0,50.00805,15503.7,-857.904,-422.165,-27142.469,-0.00039,-0.00029,50.07063,201.634,,0.0,-0.00155,-0.00448,22.87645,44.47993,,,,,,5.83,0.000197484,91356.2,91356.2,91211.2,6.8211e+17,0.0793554
4.0,3.0,50.00795,15503.8,-857.9039,-422.165,-27142.5,2e-05,4e-05,50.07066,201.832,,0.0,-0.00153,-0.00445,22.87644,44.47983,,,,,,5.885,0.000197087,91172.3,91172.3,91192.4,6.88545e+17,0.0723535
4.0,3.0,50.00839,15503.8,-857.903,-422.166,-27142.469,0.00023,0.0002,50.07115,201.9051,,0.0,-0.00153,-0.00454,22.8763,44.48027,,,,,,5.94,0.000196705,90995.7,90995.7,91173.9,6.9498e+17,0.0656353
4.0,3.0,50.00733,15503.9,-857.9039,-422.164,-27142.5,-0.00027,-3e-05,50.06967,201.26,,0.0,-0.00146,-0.00448,22.87627,44.47921,,,,,,5.995,0.0001973,91270.9,91270.9,91155.5,7.01415e+17,0.0761092
4.0,3.0,50.00802,15503.9,-857.903,-422.165,-27142.468,-0.00102,0.00029,50.07058,201.615,,0.0,-0.00147,-0.00454,22.87641,44.4799,,,,,,6.05,0.00019699,91127.5,91127.5,91137.3,7.0785e+17,0.0706492
4.0,3.0,50.00811,15504,-857.904,-422.165,-27142.5,0.00058,0.00014,50.07065,201.565,,0.0,-0.00148,-0.0045,22.87639,44.47999,,,,,,6.105,0.000196658,90974,90974,91119.2,7.14285e+17,0.0648091
4.0,3.0,50.00721,15504.1,-857.904,-422.165,-27142.5,-0.00021,-0.00021,50.06943,201.084,,0.0,-0.00146,-0.00447,22.87652,44.47909,,,,,,6.16,0.000197232,91239.4,91239.4,91101.4,7.2072e+17,0.0749092
4.0,3.0,50.0079,15504.1,-857.9041,-422.164,-27142.468,0.00037,0.00049,50.0704,201.522,,0.0,-0.00152,-0.00446,22.87642,44.47978,,,,,,6.215,0.000196836,91056.4,91056.4,91083.7,7.27155e+17,0.0679456
4.0,3.0,50.00801,15504.2,-857.904,-422.164,-27142.47,0.00011,-0.00011,50.07046,201.427,,0.0,-0.00148,-0.00449,22.8765,44.47989,,,,,,6.27,0.000196573,90934.4,90934.4,91066.3,7.3359e+17,0.063302
4.0,3.0,50.0072,15504.2,-857.903,-422.1641,-27142.469,0.00016,-0.00061,50.06932,200.92,,0.0,-0.00142,-0.00447,22.8765,44.47908,,,,,,6.325,0.000196996,91130.4,91130.4,91048.9,7.40025e+17,0.070761
4.0,3.0,50.00761,15504.3,-857.904,-422.165,-27142.47,7e-05,7e-05,50.06995,201.2653,,0.0,-0.00147,-0.00447,22.8765,44.47949,,,,,,6.38,0.000196819,91048.4,91048.4,91031.8,7.4646e+17,0.0676377
4.0,3.0,50.00816,15504.3,-857.9039,-422.165,-27142.5,-0.00039,0.00019,50.07058,201.398,,0.0,-0.00151,-0.00449,22.87642,44.48004,,,,,,6.435,0.000196488,90895,90895,91014.8,7.52895e+17,0.0618027
4.0,3.0,50.00714,15504.4,-857.904,-422.165,-27142.469,0.00056,-0.00026,50.06923,200.87,,0.0,-0.00157,-0.00452,22.87661,44.47902,,,,,,6.49,0.000196899,91085.4,91085.4,90998,7.5933e+17,0.0690485
4.0,3.0,50.00739,15504.4,-857.9039,-422.164,-27142.5,-0.00014,0.00028,50.06955,200.978,,0.0,-0.00152,-0.00451,22.8765,44.47927,,,,,,6.545,0.0001967479,91015.5,91015.5,90981.4,7.65765e+17,0.0663869
4.0,3.0,50.008,15504.5,-857.903,-422.164,-27142.469,-6e-05,0.00014,50.07033,201.244,,0.0,-0.00148,-0.00451,22.87633,44.47989,,,,,,6.6,0.000196393,90851.4,90851.4,90964.9,7.722e+17,0.0601436
4.0,3.0,50.00725,15504.6,-857.904,-422.164,-27142.5,0.00015,-0.00019,50.06924,200.718,,0.0,-0.00148,-0.0045,22.87643,44.47913,,,,,,6.655,0.0001967702,91025.8,91025.8,90948.6,7.78635e+17,0.0667796
4.0,3.0,50.00713,15504.6,-857.904,-422.166,-27142.469,0.00034,-0.0003,50.06911,200.699,,0.0,-0.00149,-0.00452,22.87642,44.47901,,,,,,6.71,0.00019658,90938,90938,90932.5,7.8507e+17,0.0634372
4.0,3.0,50.00822,15504.7,-857.904,-422.164,-27142.5,0.0,0.00084,50.07053,201.222,,0.0,-0.0015,-0.00452,22.87655,44.4801,,,,,,6.765,0.000196276,90797.1,90797.1,90916.5,7.91505e+17,0.058076
4.0,3.0,50.00725,15504.7,-857.903,-422.165,-27142.47,-0.00036,4e-05,50.06915,200.585,,0.0,-0.0015,-0.00448,22.87638,44.47913,,,,,,6.82,0.000196696,90991.4,90991.4,90900.7,7.9794e+17,0.0654698
4.0,3.0,50.0069,15504.8,-857.904,-422.164,-27142.47,-0.00036,-0.00031,50.0688,200.571,,0.0,-0.00153,-0.00448,22.8767,44.47878,,,,,,6.875,0.000196571,90933.8,90933.8,90885,8.04375e+17,0.0632775
4.0,3.0,50.00796,15504.8,-857.904,-422.165,-27142.5,-0.00026,0.00012,50.07012,200.989,,0.0,-0.00146,-0.00453,22.8765,44.47984,,,,,,6.93,0.000196112,90721.4,90721.4,90869.4,8.1081e+17,0.0551949
4.0,3.0,50.0071,15504.9,-857.903,-422.1641,-27142.471,6e-05,-0.00015,50.06893,200.478,,0.0,-0.00148,-0.0045,22.87657,44.47898,,,,,,6.985,0.000196575,90935.4,90935.4,90854.1,8.17245e+17,0.0633388
4.0,3.0,50.00683,15504.9,-857.904,-422.165,-27142.471,-0.00024,-0.00022,50.06864,200.426,,0.0,-0.00151,-0.0045,22.87658,44.47872,,,,,,7.04,0.000196469,90886.5,90886.5,90838.9,8.2368e+17,0.0614764
4.0,3.0,50.00796,15505,-857.904,-422.1641,-27142.471,0.00063,0.00078,50.0701,200.9433,,0.0,-0.00149,-0.0045,22.87658,44.47984,,,,,,7.095,0.000195992,90665.8,90665.8,90823.8,8.30115e+17,0.0530788
4.0,3.0,50.00722,15505,-857.904,-422.165,-27142.47,-0.00084,0.00026,50.06895,200.3088,,0.0,-0.00155,-0.00452,22.87643,44.4791,,,,,,7.15,0.000196459,90881.8,90881.8,90808.8,8.3655e+17,0.0612979
4.0,3.0,50.00693,15505.1,-857.9039,-422.164,-27142.5,0.00011,0.00021,50.06864,200.282,,0.0,-0.0015,-0.00448,22.87655,44.47881,,,,,,7.205,0.000196389,90849.5,90849.5,90794.1,8.42985e+17,0.0600711
4.0,3.0,50.00801,15505.2,-857.903,-422.164,-27142.47,0.00012,0.00022,50.07008,200.8383,,0.0,-0.00148,-0.00455,22.87648,44.47989,,,,,,7.26,0.00019592,90632.3,90632.3,90779.4,8.4942e+17,0.0518032
4.0,3.0,50.007,15505.2,-857.904,-422.165,-27142.471,-0.00033,-0.00048,50.0686,200.118,,0.0,-0.00156,-0.00452,22.87655,44.47888,,,,,,7.315,0.000196425,90866.1,90866.1,90764.9,8.55855e+17,0.0607003
4.0,3.0,50.0068,15505.3,-857.905,-422.166,-27142.47,-9e-05,-0.00054,50.06846,200.194,,0.0,-0.00153,-0.00456,22.8764,44.47868,,,,,,7.37,0.000196333,90823.3,90823.3,90750.6,8.6229e+17,0.0590735
4.0,3.0,50.00787,15505.3,-857.904,-422.165,-27142.5,0.00028,0.00011,50.06981,200.654,,0.0,-0.00148,-0.00446,22.87661,44.47975,,,,,,7.425,0.000195765,90560.7,90560.7,90736.4,8.68725e+17,0.0490775
4.0,3.0,50.00693,15505.4,-857.904,-422.164,-27142.471,-0.00013,-0.00017,50.06846,199.997,,0.0,-0.00148,-0.00452,22.87667,44.47881,,,,,,7.48,0.000196314,90814.8,90814.8,90722.3,8.7516e+17,0.0587475
4.0,3.0,50.00669,15505.4,-857.904,-422.165,-27142.5,0.00017,0.00042,50.06824,200.038,,0.0,-0.00148,-0.00455,22.87647,44.47857,,,,,,7.535,0.000196254,90787.1,90787.1,90708.3,8.81595e+17,0.0576939
4.0,3.0,50.00809,15505.5,-857.904,-422.165,-27142.47,0.0,0.00028,50.07002,200.623,,0.0,-0.00145,-0.00451,22.87668,44.47997,,,,,,7.59,0.000195706,90533.4,90533.4,90694.5,8.8803e+17,0.0480399
4.0,3.0,50.00723,15505.5,-857.904,-422.165,-27142.5,-0.0004,-6e-05,50.06878,200.026,,0.0,-0.00145,-0.00445,22.87651,44.47911,,,,,,7.645,0.0001962674,90793.2,90793.2,90680.9,8.94465e+17,0.0579272
4.0,3.0,50.00703,15505.6,-857.904,-422.165,-27142.47,-8e-05,0.00058,50.06858,200.032,,0.0,-0.00146,-0.00455,22.87651,44.47891,,,,,,7.7,0.000196194,90759.4,90759.4,90667.3,9.009e+17,0.0566405
4.0,3.0,50.00785,15505.7,-857.904,-422.164,-27142.47,6e-05,-0.0004,50.06964,200.4111,,0.0,-0.0015,-0.0045,22.87656,44.47973,,,,,,7.755,0.000195624,90495.7,90495.7,90653.9,9.07335e+17,0.0466052
4.0,3.0,50.00674,15505.7,-857.904,-422.165,-27142.47,1e-05,-0.00032,50.0681,199.738,,0.0,-0.00151,-0.00452,22.87665,44.47862,,,,,,7.81,0.000196018,90677.7,90677.7,90640.6,9.1377e+17,0.0535292
4.0,3.0,50.00687,15505.8,-857.9031,-422.164,-27142.5,-3e-05,-9e-05,50.06835,199.919,,0.0,-0.00146,-0.00449,22.87667,44.47875,,,,,,7.865,0.000196149,90738.4,90738.4,90627.5,9.20205e+17,0.0558419
4.0,3.0,50.00717,15505.8,-857.904,-422.164,-27142.47,0.00012,8e-05,50.06879,200.137,,0.0,-0.0015,-0.00451,22.87667,44.47905,,,,,,7.92,0.000195623,90495.2,90495.2,90614.4,9.2664e+17,0.0465848
4.0,3.0,50.0066,15505.9,-857.9049,-422.165,-27142.471,-0.00018,-8e-05,50.06786,199.586,,0.0,-0.00148,-0.00455,22.87673,44.47848,,,,,,7.975,0.000195863,90606.1,90606.1,90601.5,9.33075e+17,0.0508078
4.0,3.0,50.00702,15505.9,-857.904,-422.165,-27142.472,-0.00026,-1e-05,50.06847,199.88,,0.0,-0.00149,-0.00454,22.87647,44.4789,,,,,,8.03,0.000196023,90680.2,90680.2,90588.8,9.3951e+17,0.0536276
4.0,3.0,50.00757,15506,-857.903,-422.1649,-27142.471,-0.00032,-2e-05,50.06914,200.07,,0.0,-0.00149,-0.00453,22.87661,44.47945,,,,,,8.085,0.000195594,90481.7,90481.7,90576.1,9.45945e+17,0.0460707
4.0,3.0,50.00651,15506,-857.904,-422.165,-27142.471,0.00036,-0.00042,50.0677,199.476,,0.0,-0.00151,-0.00453,22.87664,44.47839,,,,,,8.14,0.000195864,90606.8,90606.8,90563.6,9.5238e+17,0.050831
4.0,3.0,50.00656,15506.1,-857.904,-422.1649,-27142.5,-0.00026,0.00015,50.06783,199.613,,0.0,-0.00146,-0.00454,22.87684,44.47844,,,,,,8.195,0.000195916,90630.6,90630.6,90551.2,9.58815e+17,0.0517374
4.0,3.0,50.00682,15506.1,-857.903,-422.164,-27142.471,-0.00017,0.0006,50.06821,199.777,,0.0,-0.00147,-0.00453,22.87672,44.4787,,,,,,8.25,0.000195545,90459.1,90459.1,90538.9,9.6525e+17,0.0452117
4.0,3.0,50.0065,15506.2,-857.904,-422.1659,-27142.47,-7e-05,-0.00047,50.06765,199.418,,0.0,-0.00149,-0.00451,22.87686,44.47838,,,,,,8.305,0.000195785,90570.2,90570.2,90526.7,9.71685e+17,0.0494391
4.0,3.0,50.00665,15506.3,-857.904,-422.164,-27142.47,0.00011,-9e-05,50.06787,199.53,,0.0,-0.00141,-0.00455,22.87671,44.47853,,,,,,8.36,0.0001958893,90618.3,90618.3,90514.7,9.7812e+17,0.0512703
4.0,3.0,50.00737,15506.3,-857.904,-422.164,-27142.471,-0.00039,2e-05,50.06876,199.782,,0.0,-0.00151,-0.00458,22.87678,44.47925,,,,,,8.415,0.000195446,90413.5,90413.5,90502.7,9.84555e+17,0.0434741
4.0,3.0,50.00671,15506.4,-857.903,-422.165,-27142.471,3e-05,0.00013,50.06783,199.364,,0.0,-0.00156,-0.00456,22.87664,44.47859,,,,,,8.47,0.000195712,90536.4,90536.4,90490.9,9.9099e+17,0.0481544
4.0,3.0,50.00651,15506.4,-857.903,-422.165,-27142.47,-0.00013,-2e-05,50.06764,199.384,,0.0,-0.00153,-0.00454,22.87666,44.47839,,,,,,8.525,0.000195838,90594.3,90594.3,90479.2,9.97425e+17,0.0503585
4.0,3.0,50.00721,15506.5,-857.904,-422.164,-27142.471,0.00017,0.00047,50.06854,199.689,,0.0,-0.00151,-0.00452,22.87674,44.47909,,,,,,8.58,0.000195185,90292.3,90292.3,90467.6,1.00386e+18,0.0388625
4.0,3.0,50.00671,15506.5,-857.903,-422.1632,-27142.5,-3e-05,-0.00017,50.06777,199.268,,0.0,-0.00146,-0.00452,22.87674,44.4786,,,,,,8.635,0.000195161,90281.2,90281.2,90456.1,1.01029e+18,0.0384411
4.0,3.0,50.00648,15506.6,-857.903,-422.165,-27142.472,0.00014,-0.00026,50.06758,199.323,,0.0,-0.00148,-0.00455,22.87679,44.47836,,,,,,8.69,0.000195654,90509.4,90509.4,90444.7,1.01673e+18,0.047127
4.0,3.0,50.00718,15506.6,-857.904,-422.1632,-27142.5,-0.00029,8e-05,50.06844,199.587,,0.0,-0.00149,-0.00457,22.8769,44.47906,,,,,,8.745,0.000195473,90425.7,90425.7,90433.5,1.02316e+18,0.0439396
4.0,3.0,50.00649,15506.7,-857.903,-422.165,-27142.471,-4e-05,-0.0002,50.06745,199.107,,0.0,-0.00148,-0.00454,22.8768,44.47837,,,,,,8.8,0.000195354,90370.6,90370.6,90422.3,1.0296e+18,0.0418434
4.0,3.0,50.00627,15506.8,-857.9029,-422.165,-27142.471,-9e-05,-4e-05,50.06725,199.151,,0.0,-0.00148,-0.00457,22.87664,44.47815,,,,,,8.855,0.0001957448,90551.5,90551.5,90411.3,1.03603e+18,0.0487262
4.0,3.0,50.00746,15506.8,-857.904,-422.164,-27142.471,0.00022,0.00043,50.06872,199.59,,0.0,-0.00148,-0.00453,22.87669,44.47934,,,,,,8.91,0.000195288,90340.2,90340.2,90400.3,1.04247e+18,0.0406865
4.0,3.0,50.00669,15506.9,-857.904,-422.1641,-27142.471,0.00026,6e-05,50.06762,199.076,,0.0,-0.00151,-0.00453,22.87673,44.47857,,,,,,8.965,0.00019535,90368.8,90368.8,90389.5,1.0489e+18,0.041773
4.0,3.0,50.00633,15506.9,-857.904,-422.163,-27142.47,-0.00032,7e-05,50.06722,199.005,,0.0,-0.00145,-0.00455,22.87669,44.47821,,,,,,9.02,0.000195771,90563.6,90563.6,90378.8,1.05534e+18,0.0491886
4.0,3.0,50.00729,15507,-857.904,-422.163,-27142.471,8e-05,-0.00021,50.0685,199.514,,0.0,-0.00146,-0.00454,22.87655,44.47917,,,,,,9.075,0.000195083,90245.1,90245.1,90368.1,1.06177e+18,0.037068
4.0,3.0,50.00651,15507,-857.905,-422.165,-27142.471,-0.00017,-5e-05,50.06737,198.9646,,0.0,-0.00149,-0.00457,22.87676,44.47839,,,,,,9.13,0.000195172,90286.6,90286.6,90357.6,1.06821e+18,0.0386474
4.0,3.0,50.00613,15507.1,-857.9031,-422.166,-27142.5,-0.00027,0.00018,50.06695,198.902,,0.0,-0.00148,-0.0045,22.87681,44.47801,,,,,,9.185,0.000195492,90434.5,90434.5,90347.2,1.07464e+18,0.0442761
4.0,3.0,50.00729,15507.1,-857.903,-422.165,-27142.471,0.00037,0.00013,50.06844,199.4188,,0.0,-0.00148,-0.00455,22.87686,44.47917,,,,,,9.24,0.000194968,90191.9,90191.9,90336.8,1.08108e+18,0.0350422
4.0,3.0,50.00633,15507.2,-857.904,-422.164,-27142.471,-0.00033,-0.00015,50.06708,198.787,,0.0,-0.00148,-0.00451,22.87682,44.47821,,,,,,9.295,0.000195071,90239.7,90239.7,90326.6,1.08751e+18,0.0368598
4.0,3.0,50.00615,15507.2,-857.903,-422.165,-27142.471,-0.00011,-0.00012,50.06689,198.78,,0.0,-0.0015,-0.00454,22.87682,44.47803,,,,,,9.35,0.000195565,90468.3,90468.3,90316.5,1.09395e+18,0.0455603
4.0,3.0,50.0073,15507.3,-857.903,-422.1641,-27142.5,0.00033,4e-05,50.0684,199.3346,,0.0,-0.00151,-0.00459,22.87669,44.47918,,,,,,9.405,0.000194891,90156.7,90156.7,90306.4,1.10038e+18,0.0337027
4.0,3.0,50.00643,15507.4,-857.904,-422.165,-27142.471,0.00012,2e-05,50.06714,198.717,,0.0,-0.00158,-0.00452,22.8769,44.47831,,,,,,9.46,0.000195134,90269,90269,90296.5,1.10682e+18,0.0379754
4.0,3.0,50.00604,15507.4,-857.905,-422.164,-27142.471,0.00016,-2e-05,50.06673,198.7,,0.0,-0.00147,-0.00447,22.87682,44.47792,,,,,,,,,,,,
4.0,3.0,50.00717,15507.5,-857.904,-422.165,-27142.471,-4e-05,3e-05,50.06819,199.217,,0.0,-0.00148,-0.00455,22.87683,44.47905,,,,,,,,,,,,
4.0,3.0,50.00629,15507.5,-857.904,-422.165,-27142.471,0.00014,-0.00025,50.06694,198.637,,0.0,-0.0015,-0.00453,22.87674,44.47817,,,,,,,,,,,,
4.0,3.0,50.00595,15507.6,-857.903,-422.165,-27142.471,-0.0,-5e-05,50.06654,198.547,,0.0,-0.00142,-0.00454,22.87667,44.47783,,,,,,,,,,,,
4.0,3.0,50.00719,15507.6,-857.904,-422.165,-27142.5,0.0001,0.00032,50.06817,199.14,,0.0,-0.00148,-0.00457,22.87688,44.47907,,,,,,,,,,,,
4.0,3.0,50.00654,15507.7,-857.904,-422.164,-27142.469,-0.00032,-4e-05,50.06722,198.68,,0.0,-0.00149,-0.00453,22.8768,44.47842,,,,,,,,,,,,
4.0,3.0,50.00596,15507.7,-857.903,-422.165,-27142.5,0.00037,0.00019,50.06648,198.443,,0.0,-0.00151,-0.00454,22.87699,44.47784,,,,,,,,,,,,
4.0,3.0,50.00691,15507.8,-857.904,-422.165,-27142.47,8e-05,-0.00013,50.06777,198.957,,0.0,-0.00156,-0.00455,22.87717,44.47879,,,,,,,,,,,,
4.0,3.0,50.00661,15507.9,-857.9038,-422.165,-27142.471,-0.00028,-0.00044,50.06726,198.628,,0.0,-0.00144,-0.00453,22.87672,44.47849,,,,,,,,,,,,
4.0,3.0,50.006,15507.9,-857.904,-422.165,-27142.471,-0.0002,-0.00028,50.06646,198.346,,0.0,-0.0015,-0.00451,22.87695,44.47788,,,,,,,,,,,,
4.0,3.0,50.00692,15508,-857.904,-422.165,-27142.472,0.00013,0.00033,50.06773,198.885,,0.0,-0.00146,-0.00449,22.87695,44.4788,,,,,,,,,,,,
4.0,3.0,50.0064,15508,-857.904,-422.165,-27142.472,0.00017,7e-05,50.06696,198.504,,0.0,-0.00145,-0.00458,22.87686,44.47828,,,,,,,,,,,,
4.0,3.0,50.00616,15508.1,-857.903,-422.1641,-27142.471,0.00015,7e-05,50.06665,198.386,,0.0,-0.00152,-0.00453,22.87688,44.47804,,,,,,,,,,,,
4.0,3.0,50.00685,15508.1,-857.904,-422.164,-27142.469,-3e-05,0.0006,50.06761,198.804,,0.0,-0.00147,-0.00452,22.87699,44.47873,,,,,,,,,,,,
4.0,3.0,50.00656,15508.2,-857.904,-422.1649,-27142.5,0.00032,-0.00022,50.06706,198.417,,0.0,-0.00146,-0.00446,22.87696,44.47844,,,,,,,,,,,,
4.0,3.0,50.00612,15508.2,-857.904,-422.165,-27142.47,6e-05,-0.00015,50.06651,198.237,,0.0,-0.00151,-0.00452,22.87698,44.478,,,,,,,,,,,,
4.0,3.0,50.00665,15508.3,-857.903,-422.1649,-27142.5,-0.00021,8e-05,50.0673,198.641,,0.0,-0.00149,-0.00453,22.87696,44.47853,,,,,,,,,,,,
4.0,3.0,50.00639,15508.3,-857.903,-422.165,-27142.472,9e-05,-0.00032,50.06683,198.31,,0.0,-0.00151,-0.00454,22.87684,44.47827,,,,,,,,,,,,
4.0,3.0,50.00564,15508.4,-857.903,-422.165,-27142.5,0.00023,-0.00037,50.06587,197.977,,0.0,-0.00147,-0.00452,22.8769,44.47752,,,,,,,,,,,,
4.0,3.0,50.00601,15508.5,-857.904,-422.165,-27142.471,0.00037,0.00039,50.06648,198.342,,0.0,-0.00152,-0.00452,22.87697,44.4779,,,,,,,,,,,,
4.0,3.0,50.00651,15508.5,-857.9039,-422.164,-27142.5,-0.00031,-0.0001,50.067,198.386,,0.0,-0.00152,-0.00451,22.87713,44.47839,,,,,,,,,,,,
4.0,3.0,50.00643,15508.6,-857.904,-422.165,-27142.471,-0.00016,7e-05,50.06684,198.265,,0.0,-0.00155,-0.00454,22.87689,44.47831,,,,,,,,,,,,
4.0,3.0,50.00679,15508.6,-857.904,-422.164,-27142.5,-0.0001,6e-05,50.06735,198.499,,0.0,-0.0015,-0.00449,22.87684,44.47867,,,,,,,,,,,,
4.0,3.0,50.00673,15508.7,-857.903,-422.164,-27142.472,-0.00024,-2e-05,50.06722,198.3788,,0.0,-0.0015,-0.00452,22.87698,44.47861,,,,,,,,,,,,
4.0,3.0,50.00564,15508.7,-857.9031,-422.165,-27142.471,0.00019,-0.00028,50.06578,197.8435,,0.0,-0.00153,-0.00453,22.87673,44.47752,,,,,,,,,,,,
4.0,3.0,50.00661,15508.8,-857.904,-422.165,-27142.471,-9e-05,-2e-05,50.06712,198.41,,0.0,-0.00152,-0.00447,22.87705,44.47849,,,,,,,,,,,,
4.0,3.0,50.00658,15508.8,-857.903,-422.1649,-27142.471,-0.00037,-0.0003,50.06702,198.301,,0.0,-0.00148,-0.00452,22.87711,44.47846,,,,,,,,,,,,
4.0,3.0,50.00562,15508.9,-857.904,-422.165,-27142.471,-0.00016,-0.00035,50.06569,197.7471,,0.0,-0.00153,-0.00449,22.87723,44.4775,,,,,,,,,,,,
4.0,3.0,50.0063,15509,-857.9039,-422.165,-27142.471,7e-05,9e-05,50.06668,198.23,,0.0,-0.00147,-0.00451,22.87694,44.47818,,,,,,,,,,,,
4.0,3.0,50.00646,15509,-857.904,-422.164,-27142.5,0.00039,0.00045,50.06683,198.196,,0.0,-0.00149,-0.00454,22.87695,44.47834,,,,,,,,,,,,
4.0,3.0,50.00551,15509.1,-857.904,-422.1651,-27142.5,-0.00047,0.00026,50.06553,197.66,,0.0,-0.00149,-0.0045,22.87704,44.47739,,,,,,,,,,,,
4.0,3.0,50.00596,15509.1,-857.902,-422.165,-27142.471,0.00051,0.00017,50.06626,198.083,,0.0,-0.00153,-0.00454,22.8769,44.47784,,,,,,,,,,,,
4.0,3.0,50.00655,15509.2,-857.903,-422.165,-27142.471,-0.00015,-5e-05,50.06687,198.115,,0.0,-0.00151,-0.00452,22.8769,44.47843,,,,,,,,,,,,
4.0,3.0,50.00567,15509.2,-857.904,-422.165,-27142.47,-0.00028,-0.00015,50.0657,197.665,,0.0,-0.0015,-0.00451,22.87703,44.47755,,,,,,,,,,,,
4.0,3.0,50.00672,15509.3,-857.904,-422.165,-27142.5,7e-05,-0.00042,50.06713,198.261,,0.0,-0.00147,-0.00452,22.87706,44.4786,,,,,,,,,,,,
4.0,3.0,50.00659,15509.3,-857.904,-422.165,-27142.471,-0.00046,-0.00013,50.06684,198.011,,0.0,-0.00151,-0.00456,22.87703,44.47847,,,,,,,,,,,,
4.0,3.0,50.00577,15509.4,-857.904,-422.165,-27142.471,-0.00036,-0.0001,50.06575,197.585,,0.0,-0.00149,-0.00455,22.87698,44.47765,,,,,,,,,,,,
4.0,3.0,50.00684,15509.4,-857.903,-422.165,-27142.471,0.00021,5e-05,50.06719,198.167,,0.0,-0.00146,-0.00459,22.87702,44.47872,,,,,,,,,,,,
4.0,3.0,50.00631,15509.5,-857.904,-422.165,-27142.471,0.00067,-2e-05,50.06644,197.817,,0.0,-0.00143,-0.0045,22.87695,44.47819,,,,,,,,,,,,
4.0,3.0,50.00538,15509.6,-857.904,-422.164,-27142.472,-5e-05,0.00014,50.06523,197.391,,0.0,-0.00148,-0.00456,22.877,44.47726,,,,,,,,,,,,
4.0,3.0,50.00646,15509.6,-857.903,-422.166,-27142.5,7e-05,0.00026,50.06671,198.014,,0.0,-0.00147,-0.00452,22.87707,44.47834,,,,,,,,,,,,
4.0,3.0,50.00651,15509.7,-857.903,-422.164,-27142.471,-0.00033,9e-05,50.06667,197.882,,0.0,-0.00149,-0.00454,22.87725,44.47839,,,,,,,,,,,,
4.0,3.0,50.00616,15509.7,-857.9039,-422.164,-27142.5,-0.00067,-5e-05,50.06616,197.6226,,0.0,-0.00151,-0.00448,22.87704,44.47804,,,,,,,,,,,,
4.0,3.0,50.00646,15509.8,-857.904,-422.164,-27142.471,0.00018,7e-05,50.06665,197.924,,0.0,-0.00154,-0.00452,22.87707,44.47834,,,,,,,,,,,,
4.0,3.0,50.00667,15509.8,-857.903,-422.164,-27142.471,0.00012,-0.00044,50.06684,197.883,,0.0,-0.00144,-0.00453,22.87701,44.47855,,,,,,,,,,,,
4.0,3.0,50.00568,15509.9,-857.904,-422.164,-27142.47,0.0001,-1e-05,50.06557,197.4487,,0.0,-0.00151,-0.00455,22.87725,44.47756,,,,,,,,,,,,
4.0,4.0,49.69291,15509.9,-857.903,-422.164,-27142.5,-0.00039,0.00018,49.73797,174.417,,0.0,-0.00147,-0.00454,22.87703,44.16479,,,,,,,,,,,,
4.0,4.0,48.87091,15510,-857.904,-422.165,-27142.47,0.00021,6e-05,48.89136,136.1652,,0.0,-0.0015,-0.0045,22.87703,43.34279,,,,,,,,,,,,
4.0,4.0,47.73324,15510.1,-857.904,-422.165,-27142.5,0.00011,0.00033,47.73121,101.228,,0.0,-0.00148,-0.00453,22.87703,42.20512,,,,,,,,,,,,
4.0,4.0,46.42133,15510.1,-857.903,-422.165,-27142.471,-0.00024,0.00066,46.40388,77.26298,,0.0,-0.00151,-0.00451,22.87709,40.89321,,,,,,,,,,,,
4.0,4.0,45.02425,15510.2,-857.904,-422.1659,-27142.471,0.0001,0.00018,44.9973,62.51071,,0.0,-0.00147,-0.0045,22.87715,39.49613,,,,,,,,,,,,
4.0,4.0,43.59317,15510.2,-857.904,-422.164,-27142.471,0.00025,0.00011,43.55993,52.72546,,0.0,-0.00147,-0.00453,22.8773,38.06505,,,,,,,,,,,,
4.0,4.0,42.15551,15510.3,-857.904,-422.165,-27142.5,6e-05,0.00058,42.11776,45.72441,,0.0,-0.00146,-0.00459,22.87718,36.62739,,,,,,,,,,,,
4.0,4.0,40.71928,15510.3,-857.904,-422.165,-27142.471,-0.00033,4e-05,40.67761,39.62228,,0.0,-0.0015,-0.00454,22.87713,35.19117,,,,,,,,,,,,
4.0,4.0,39.28881,15510.4,-857.904,-422.166,-27142.5,-3e-05,0.0004,39.2436,34.14847,,0.0,-0.00154,-0.00449,22.87712,33.76069,,,,,,,,,,,,
4.0,4.0,37.86551,15510.4,-857.904,-422.164,-27142.47,-0.00016,0.00035,37.81736,29.56903,,0.0,-0.0015,-0.00449,22.87709,32.33739,,,,,,,,,,,,
4.0,4.0,36.44645,15510.5,-857.904,-422.165,-27142.471,1e-05,0.00053,36.39532,24.93184,,0.0,-0.00153,-0.00451,22.8772,30.91833,,,,,,,,,,,,
4.0,4.0,35.03146,15510.5,-857.904,-422.166,-27142.471,-0.00025,-0.00039,34.97748,20.50825,,0.0,-0.00153,-0.0045,22.87715,29.50334,,,,,,,,,,,,
4.0,4.0,33.62159,15510.6,-857.903,-422.164,-27142.5,5e-05,0.00012,33.56491,16.30809,,0.0,-0.00155,-0.00449,22.87719,28.09347,,,,,,,,,,,,
4.0,4.0,32.21483,15510.7,-857.904,-422.165,-27142.471,-0.00014,0.00027,32.15548,12.1634,,0.0,-0.00152,-0.00454,22.8773,26.68671,,,,,,,,,,,,
4.0,4.0,30.80794,15510.7,-857.902,-422.165,-27142.5,0.00022,0.00021,30.74599,8.12963,,0.0,-0.00151,-0.00451,22.87709,25.27982,,,,,,,,,,,,
4.0,4.0,29.40537,15510.8,-857.903,-422.165,-27142.472,0.00034,0.00044,29.34104,4.41992,,0.0,-0.00149,-0.00449,22.87724,23.87725,,,,,,,,,,,,
4.0,4.0,28.00584,15510.8,-857.904,-422.163,-27142.471,-0.0002,0.0007,27.93922,0.86452,,0.0,-0.0015,-0.00451,22.87724,22.47772,,,,,,,,,,,,
4.0,4.0,26.604,15510.9,-857.904,-422.165,-27142.471,7e-05,0.00026,26.53676,-0.09737,,0.0,-0.00149,-0.0045,22.87723,21.07588,,,,,,,,,,,,
4.0,4.0,25.20599,15510.9,-857.9039,-422.165,-27142.5,0.00045,0.00039,25.13868,-0.20002,,0.0,-0.00153,-0.00455,22.87713,19.67787,,,,,,,,,,,,
4.0,4.0,23.80952,15511,-857.903,-422.165,-27142.47,0.00032,0.0005,23.74212,-0.35096,,0.0,-0.00152,-0.00449,22.87719,18.2814,,,,,,,,,,,,
4.0,4.0,22.41299,15511,-857.904,-422.165,-27142.5,-0.00053,0.00047,22.34548,-0.50944,,0.0,-0.00149,-0.00448,22.87731,16.88487,,,,,,,,,,,,
4.0,4.0,21.01938,15511.1,-857.904,-422.166,-27142.471,0.0007,-0.00027,20.95179,-0.64495,,0.0,-0.00154,-0.00448,22.87715,15.49126,,,,,,,,,,,,
4.0,4.0,19.62716,15511.2,-857.903,-422.1632,-27142.471,0.00019,0.00041,19.55948,-0.79433,,0.0,-0.0015,-0.00452,22.87716,14.09904,,,,,,,,,,,,
4.0,4.0,18.2326,15511.2,-857.903,-422.164,-27142.471,-0.00076,0.00022,18.16481,-0.95338,,0.0,-0.00152,-0.00444,22.87714,12.70449,,,,,,,,,,,,
4.0,4.0,16.84169,15511.3,-857.903,-422.1649,-27142.5,0.00033,0.00035,16.77382,-1.07985,,0.0,-0.0015,-0.00452,22.87719,11.31357,,,,,,,,,,,,
4.0,4.0,15.45193,15511.3,-857.903,-422.165,-27142.472,2e-05,0.00053,15.38396,-1.23419,,0.0,-0.00151,-0.00452,22.87731,9.92381,,,,,,,,,,,,
4.0,4.0,14.06077,15511.4,-857.903,-422.165,-27142.5,-0.00086,0.0003,13.9927,-1.38629,,0.0,-0.0015,-0.00448,22.87724,8.53265,,,,,,,,,,,,
4.0,4.0,12.67229,15511.4,-857.904,-422.165,-27142.471,-0.00023,0.00021,12.60413,-1.51708,,0.0,-0.00155,-0.0045,22.87715,7.14417,,,,,,,,,,,,
4.0,4.0,11.28476,15511.5,-857.904,-422.164,-27142.471,-0.0004,-0.00021,11.21651,-1.6697,,0.0,-0.0015,-0.00452,22.87727,5.75664,,,,,,,,,,,,
4.0,4.0,9.89632,15511.5,-857.904,-422.165,-27142.47,1e-05,-9e-05,9.82798,-1.81321,,0.0,-0.00152,-0.00451,22.87722,4.3682,,,,,,,,,,,,
4.0,4.0,8.51109,15511.6,-857.904,-422.1631,-27142.47,-0.00017,-2e-05,8.44265,-1.95456,,0.0,-0.00153,-0.00451,22.87741,2.98297,,,,,,,,,,,,
4.0,4.0,7.1265,15511.6,-857.904,-422.164,-27142.47,-0.00014,7e-05,7.05798,-2.09166,,0.0,-0.00149,-0.00451,22.8773,1.59838,,,,,,,,,,,,
4.0,4.0,5.74129,15511.7,-857.904,-422.165,-27142.47,0.0001,0.00058,5.67267,-2.2494,,0.0,-0.00149,-0.00447,22.87727,0.21317,,,,,,,,,,,,
4.0,4.0,4.35885,15511.8,-857.903,-422.165,-27142.47,-0.00071,0.00047,4.29013,-2.39401,,0.0,-0.00153,-0.00452,22.87725,-1.16927,,,,,,,,,,,,
4.0,4.0,2.97837,15511.8,-857.904,-422.166,-27142.47,3e-05,0.00042,2.90957,-2.52355,,0.0,-0.00149,-0.00453,22.8775,-2.54975,,,,,,,,,,,,
4.0,4.0,1.5987,15511.9,-857.905,-422.165,-27142.47,1e-05,3e-05,1.52981,-2.6704,,0.0,-0.00153,-0.0045,22.87743,-3.92941,,,,,,,,,,,,
4.0,4.0,0.42418,15511.9,-857.904,-422.164,-27142.47,-0.00025,0.00022,0.35521,-2.79064,,0.0,-0.00152,-0.00451,22.87729,-5.10394,,,,,,,,,,,,
4.0,4.0,0.21282,15511.9,-857.904,-422.166,-27142.5,5e-05,2e-05,0.14384,-2.80513,,0.0,-0.0015,-0.00452,22.87737,-5.3153,,,,,,,,,,,,