File: dataset_example/processed_data/ForceRelax_example/data/data_1_Measurements/GMM Fitting Results/data_1_4_GMM Fit.csv
Index [#],Phase [#],Displacement [um],Time [s],Pos X [um],Pos Y [um],Pos Z [um],Piezo X [um],Piezo Y [um],Piezo Z [um],Force A [uN],Force B [uN],Gripper [V],Voltage A [V],Voltage B [V],Temperature [oC],Sample Displacement [um],Filtered time [uN},Filtered force [uN],SG Force [uN],Est Force 2nd derivative,Filtered displacement [um],Sel Time [s],Sel Force [N],Sel Modulus Uncorrected [Pa],Sel Modulus Corrected [Pa],Sel Modulus GMM Fit [Pa],Sel Time Normalised [s m-2],Sel Force Normalised []
3.0,2.0,0.00575,15476.216,-357.907,-422.161,-27143.5,-0.00038,-0.0004,-0.04336,-0.10242,,0.0,-0.00154,-0.00456,22.87321,5.07839,15476.216,-0.10242,-0.103484,0.000355774,-0.04336,0.0,0.000264598,122312,122312,123417,0.0,1.0
3.0,2.0,0.51104,15476.271,-357.906,-422.162,-27143.5,2e-05,-0.00028,0.46197,-0.04948,,0.0,-0.00158,-0.00455,22.87334,5.58368,15476.271,-0.04948,-0.0543678,0.000355774,0.46197,0.055,0.000253242,117062,117062,116744,6428582106159695.0,0.808712
3.0,2.0,1.47533,15476.326,-357.905,-422.161,-27143.514,-0.00017,7e-05,1.4263,0.02805,,0.0,-0.00159,-0.00457,22.87326,6.54797,15476.326,0.02805,0.0371201,0.000112,1.4263,0.11,0.000242652,112167,112167,112383,1.28572e+16,0.630334
3.0,2.0,2.69231,15476.381,-357.906,-422.161,-27143.5,0.0001,-0.00025,2.64335,0.1328,,0.0,-0.00156,-0.0046,22.87346,7.76494,15476.381,0.1328,0.141488,1.94364e-05,2.64335,0.165,0.000236761,109444,109444,109499,1.92857e+16,0.531108
3.0,2.0,4.0643,15476.436,-357.907,-422.161,-27143.5,0.00031,0.00026,4.01542,0.25669,,0.0,-0.00154,-0.00459,22.87333,9.13693,15476.436,0.25669,0.25091,6.8075e-05,4.01542,0.22,0.000232498,107473,107473,107559,2.57143e+16,0.459313
3.0,2.0,5.48465,15476.491,-357.906,-422.1611,-27143.5,-0.00015,-0.00013,5.43584,0.37138,,0.0,-0.00156,-0.00455,22.87358,10.55729,15476.491,0.37138,0.367508,2.84496e-05,5.43584,0.275,0.000229445,106062,106062,106225,3.21429e+16,0.407875
3.0,2.0,6.91286,15476.546,-357.907,-422.161,-27143.518,-4e-05,-0.00022,6.86412,0.47435,,0.0,-0.00151,-0.00454,22.87345,11.9855,15476.546,0.47435,0.486551,-8.84156e-06,6.86412,0.33,0.000228097,105439,105439,105282,3.85715e+16,0.385181
3.0,2.0,8.33984,15476.601,-357.906,-422.161,-27143.5,0.00038,-0.00017,8.29118,0.60175,,0.0,-0.00151,-0.00455,22.87346,13.41248,15476.601,0.60175,0.607011,5.18622e-05,8.29118,0.385,0.000226345,104629,104629,104593,4.50001e+16,0.355661
3.0,2.0,9.75918,15476.656,-357.906,-422.162,-27143.52,0.00017,-0.00022,9.71061,0.73049,,0.0,-0.00154,-0.00459,22.87338,14.83182,15476.656,0.73049,0.730107,-1.67821e-05,9.71061,0.44,0.0002250584,104034,104034,104069,5.14287e+16,0.333994
3.0,2.0,11.17035,15476.711,-357.905,-422.161,-27143.5,-4e-05,-0.00025,11.12185,0.84391,,0.0,-0.00149,-0.00452,22.87349,16.24299,15476.711,0.84391,0.849185,1.70722e-05,11.12185,0.495,0.000224644,103842,103842,103654,5.78572e+16,0.327009
3.0,2.0,12.57921,15476.766,-357.907,-422.162,-27143.521,0.00044,6e-05,12.53079,0.97415,,0.0,-0.00155,-0.00457,22.87349,17.65185,15476.766,0.97415,0.967923,3.08051e-05,12.53079,0.55,0.000223515,103320,103320,103314,6.42858e+16,0.307992
3.0,2.0,13.98097,15476.821,-357.906,-422.161,-27143.522,-0.0003,-0.0006,13.93263,1.09002,,0.0,-0.00157,-0.00456,22.87355,19.05361,15476.821,1.09002,1.07795,-0.000488567,13.93263,0.605,0.000222743,102964,102964,103024,7.07144e+16,0.294999
3.0,2.0,15.37822,15476.876,-357.906,-422.161,-27143.522,-0.0001,-0.00052,15.32991,1.13235,,0.0,-0.00155,-0.00454,22.87354,20.45086,15476.876,1.13235,1.1336,0.000462432,15.32991,0.66,0.0002226421,102917,102917,102771,7.7143e+16,0.293294
3.0,2.0,16.77484,15476.931,-357.906,-422.161,-27143.5,-0.00028,0.00035,16.72659,1.23295,,0.0,-0.00152,-0.00458,22.87358,21.84748,15476.931,1.23295,1.23755,-4.58538e-05,16.72659,0.715,0.000221726,102494,102494,102543,8.35716e+16,0.277861
3.0,2.0,18.16803,15476.986,-357.906,-422.162,-27143.523,0.0001,-0.00055,18.11984,1.33643,,0.0,-0.00147,-0.0046,22.87362,23.24066,15476.986,1.33643,1.3418,5.71875e-06,18.11984,0.77,0.000221158,102231,102231,102335,9.00001e+16,0.268296
3.0,2.0,19.55681,15477.041,-357.907,-422.1609,-27143.5,0.0002,-0.00026,19.5087,1.45067,,0.0,-0.00155,-0.0046,22.87347,24.62945,15477.041,1.45067,1.44594,-3.05372e-05,19.5087,0.825,0.000221171,102237,102237,102143,9.64287e+16,0.268516
3.0,2.0,20.94627,15477.096,-357.906,-422.162,-27143.524,-0.00025,0.00018,20.89822,1.54547,,0.0,-0.00151,-0.00459,22.87349,26.01891,15477.096,1.54547,1.54647,8.86826e-06,20.89822,0.88,0.000220458,101907,101907,101964,1.02857e+17,0.256501
3.0,2.0,22.33303,15477.151,-357.906,-422.162,-27143.524,0.00016,-0.00054,22.28504,1.64545,,0.0,-0.00158,-0.00459,22.87336,27.40566,15477.151,1.64545,1.64707,-1.34127e-05,22.28504,0.935,0.000219923,101660,101660,101795,1.09286e+17,0.247501
3.0,2.0,23.7175,15477.206,-357.907,-422.161,-27143.5,4e-05,-0.00063,23.66958,1.74653,,0.0,-0.00153,-0.00457,22.87339,28.79014,15477.206,1.74653,1.74523,0.00011884,23.66958,0.99,0.000220026,101708,101708,101636,1.15714e+17,0.249231
3.0,2.0,25.10192,15477.261,-357.906,-422.162,-27143.5,-0.00045,-0.00031,25.05407,1.8541,,0.0,-0.00157,-0.00454,22.87361,30.17456,15477.261,1.8541,1.79649,0.00511424,25.05407,1.045,0.000219478,101454,101454,101485,1.22143e+17,0.239995
3.0,2.0,26.48352,15477.316,-357.907,-422.162,-27143.525,0.00014,-0.00025,26.43598,2.34597,,0.0,-0.00153,-0.00453,22.87354,31.55616,15477.316,2.34597,2.62028,0.0561604,26.43598,1.1,0.000218919,101196,101196,101341,1.28572e+17,0.230583
3.0,2.0,27.86102,15477.371,-357.9061,-422.1611,-27143.5,0.00055,-0.00038,27.81856,10.22828,,0.0,-0.0015,-0.00455,22.87338,32.93366,15477.371,10.22828,10.1344,0.0419293,27.81856,1.155,0.000219044,101254,101254,101204,1.35e+17,0.23268
3.0,2.0,29.23927,15477.426,-357.906,-422.161,-27143.526,-0.0001,0.0002,29.20502,22.99128,,0.0,-0.00153,-0.00456,22.87347,34.31191,15477.426,22.99128,23.0251,0.0139705,29.20502,1.21,0.000218661,101077,101077,101073,1.41429e+17,0.226233
3.0,2.0,30.61697,15477.481,-357.907,-422.161,-27143.525,-0.00094,-0.00032,30.59201,37.42389,,0.0,-0.00151,-0.00452,22.8735,35.68961,15477.481,37.42389,37.4516,0.000246063,30.59201,1.265,0.000218124,100829,100829,100948,1.47857e+17,0.217191
3.0,2.0,31.99436,15477.536,-357.907,-422.162,-27143.527,-0.00057,-0.00026,31.97871,51.88527,,0.0,-0.00154,-0.00461,22.87355,37.067,15477.536,51.88527,51.9378,0.00987309,31.97871,1.32,0.000218187,100858,100858,100829,1.54286e+17,0.218248
3.0,2.0,33.37217,15477.591,-357.906,-422.161,-27143.5,5e-05,-0.00048,33.3667,67.72173,,0.0,-0.00155,-0.00453,22.8737,38.44481,15477.591,67.72173,67.6658,0.00602778,33.3667,1.375,0.000217849,100702,100702,100714,1.60715e+17,0.212562
3.0,2.0,34.74902,15477.646,-357.907,-422.161,-27143.5,-0.00053,-0.00049,34.75416,84.2113,,0.0,-0.00149,-0.00456,22.87357,39.82165,15477.646,84.2113,84.1081,-0.00255351,34.75416,1.43,0.00021765,100609,100609,100605,1.67143e+17,0.209204
3.0,2.0,36.12436,15477.701,-357.906,-422.161,-27143.528,0.00024,-0.0006,36.13978,100.181,,0.0,-0.00153,-0.00453,22.87354,41.19699,15477.701,100.181,100.284,0.00290032,36.13978,1.485,0.00021765,100609,100609,100500,1.73572e+17,0.209207
3.0,2.0,37.50028,15477.756,-357.906,-422.161,-27143.528,-0.00028,0.00023,37.52651,116.961,,0.0,-0.00148,-0.00457,22.8736,42.57292,15477.756,116.961,116.806,0.00416317,37.52651,1.54,0.000217226,100413,100413,100399,1.8e+17,0.202065
3.0,2.0,38.87426,15477.811,-357.907,-422.162,-27143.529,8e-05,0.00031,38.91134,133.836,,0.0,-0.00152,-0.00459,22.87366,43.94689,15477.811,133.836,133.829,0.00230123,38.91134,1.595,0.000216737,100188,100188,100301,1.86429e+17,0.193832
3.0,2.0,40.24763,15477.866,-357.907,-422.162,-27143.529,0.00028,0.00019,40.29574,150.975,,0.0,-0.00149,-0.00458,22.87352,45.32027,15477.866,150.975,151.144,0.00307335,40.29574,1.65,0.000216985,100302,100302,100208,1.92857e+17,0.198011
3.0,2.0,41.62139,15477.921,-357.908,-422.1619,-27143.528,-0.00016,-2e-05,41.68108,168.963,,0.0,-0.00147,-0.00455,22.8736,46.69403,15477.921,168.963,168.836,0.00181241,41.68108,1.705,0.000216652,100148,100148,100118,1.99286e+17,0.192391
3.0,2.0,42.99435,15477.976,-357.907,-422.162,-27143.529,0.00043,-0.00063,43.06554,186.835,,0.0,-0.0015,-0.00454,22.87358,48.06699,15477.976,186.835,186.748,0.00114548,43.06554,1.76,0.000216117,99900.9,99900.9,100031,2.05715e+17,0.183388
3.0,2.0,44.36477,15478.031,-357.907,-422.162,-27143.529,-2e-05,-0.00092,44.44734,204.531,,0.0,-0.00152,-0.00452,22.87364,49.43741,15478.031,204.531,204.782,0.00188594,44.44734,1.815,0.00021644,100050,100050,99947.9,2.12143e+17,0.188823
3.0,2.0,45.73575,15478.086,-357.906,-422.161,-27143.529,0.00018,-0.0004,45.83029,223.123,,0.0,-0.00151,-0.00455,22.8737,50.80839,15478.086,223.123,223.072,0.00316714,45.83029,1.87,0.000216141,99912.1,99912.1,99867.3,2.18572e+17,0.183794
3.0,2.0,47.10586,15478.141,-357.907,-422.1611,-27143.529,-0.00034,-0.00034,47.21255,242.009,,0.0,-0.00148,-0.00453,22.87389,52.17849,15478.141,242.009,241.767,0.0056777,47.21255,1.925,0.000215559,99643,99643,99789.4,2.25e+17,0.173989
3.0,2.0,48.47175,15478.196,-357.907,-422.162,-27143.53,-0.00029,-0.00021,48.59064,260.958,,0.0,-0.0015,-0.00459,22.8736,53.54439,15478.196,260.958,260.94,0.00243113,48.59064,1.98,0.000215905,99802.7,99802.7,99714.2,2.31429e+17,0.17981
3.0,3.0,49.52858,15478.251,-357.906,-422.162,-27143.5,0.00024,0.00018,49.64835,262.33,,0.0,-0.00146,-0.00454,22.87361,54.60121,,,,,,2.035,0.000215748,99730.4,99730.4,99641.4,2.37858e+17,0.177174
3.0,3.0,49.92497,15478.306,-357.906,-422.163,-27143.529,-0.0001,-0.0,50.03704,250.37,,0.0,-0.0015,-0.00454,22.87365,54.9976,,,,,,2.09,0.00021512,99440.2,99440.2,99571,2.44286e+17,0.1666
3.0,3.0,50.05012,15478.361,-357.905,-422.162,-27143.5,6e-05,-0.00013,50.15663,241.7215,,0.0,-0.00148,-0.00453,22.87369,55.12276,,,,,,2.145,0.000215459,99596.8,99596.8,99502.8,2.50715e+17,0.172308
3.0,3.0,50.08103,15478.416,-357.906,-422.163,-27143.53,-5e-05,-0.00021,50.18462,237.1933,,0.0,-0.0015,-0.00457,22.87346,55.15367,,,,,,2.2,0.000215344,99543.4,99543.4,99436.6,2.57143e+17,0.170361
3.0,3.0,50.07949,15478.471,-357.906,-422.1611,-27143.531,-0.00021,-9e-05,50.18112,234.1413,,0.0,-0.00148,-0.00452,22.87371,55.15212,,,,,,2.255,0.000214688,99240.4,99240.4,99372.5,2.63572e+17,0.159321
3.0,3.0,50.06741,15478.526,-357.906,-422.161,-27143.5,0.0003,0.00011,50.16726,231.38,,0.0,-0.00146,-0.00455,22.87381,55.14005,,,,,,2.31,0.000215087,99424.7,99424.7,99310.2,2.7e+17,0.166037
3.0,3.0,50.05643,15478.581,-357.906,-422.1619,-27143.5,9e-05,-0.00035,50.15547,230.125,,0.0,-0.00145,-0.00451,22.87361,55.12906,,,,,,2.365,0.0002149227,99348.8,99348.8,99249.6,2.76429e+17,0.163269
3.0,3.0,50.04731,15478.636,-357.906,-422.162,-27143.53,0.00039,0.00034,50.14562,228.993,,0.0,-0.00149,-0.00454,22.87342,55.11995,,,,,,2.42,0.000214341,99080.1,99080.1,99190.8,2.82858e+17,0.153477
3.0,3.0,50.03845,15478.691,-357.905,-422.1601,-27143.531,-0.00022,0.00022,50.13581,227.506,,0.0,-0.00149,-0.00458,22.87373,55.11108,,,,,,2.475,0.000214783,99284.3,99284.3,99133.6,2.89286e+17,0.160919
3.0,3.0,50.03291,15478.746,-357.906,-422.16,-27143.531,0.00026,7e-05,50.12995,227,,0.0,-0.00151,-0.00453,22.87376,55.10555,,,,,,2.53,0.000214551,99176.8,99176.8,99077.8,2.95715e+17,0.157002
3.0,3.0,50.02893,15478.801,-357.907,-422.161,-27143.5,0.00035,0.00031,50.12565,226.513,,0.0,-0.0015,-0.00454,22.8737,55.10156,,,,,,2.585,0.000213968,98907.6,98907.6,99023.6,3.02143e+17,0.147194
3.0,3.0,50.02431,15478.856,-357.906,-422.16,-27143.532,-9e-05,-0.00022,50.12024,225.281,,0.0,-0.0015,-0.00453,22.87363,55.09695,,,,,,2.64,0.000214394,99104.4,99104.4,98970.6,3.08572e+17,0.154365
3.0,3.0,50.02245,15478.911,-357.9059,-422.161,-27143.532,7e-05,-0.0004,50.11829,225.1541,,0.0,-0.00149,-0.00452,22.87364,55.09508,,,,,,2.695,0.00021409,98964,98964,98919,3.15001e+17,0.149247
3.0,3.0,50.02075,15478.966,-357.906,-422.162,-27143.531,-2e-05,2e-05,50.11636,224.787,,0.0,-0.00146,-0.00454,22.87358,55.09339,,,,,,2.75,0.00021355,98714.1,98714.1,98868.7,3.21429e+17,0.140141
3.0,3.0,50.01815,15479.021,-357.906,-422.161,-27143.532,0.00057,0.00016,50.11317,223.872,,0.0,-0.00148,-0.00455,22.87368,55.09078,,,,,,2.805,0.00021398,98913.1,98913.1,98819.5,3.27858e+17,0.147392
3.0,3.0,50.01739,15479.076,-357.906,-422.161,-27143.532,0.00072,-6e-05,50.11238,223.827,,0.0,-0.00149,-0.00457,22.87373,55.09003,,,,,,2.86,0.000213777,98819.3,98819.3,98771.4,3.34286e+17,0.143974
3.0,3.0,50.01675,15479.131,-357.9059,-422.161,-27143.532,6e-05,-0.00018,50.11157,223.56,,0.0,-0.00148,-0.00455,22.87377,55.08939,,,,,,2.915,0.00021336,98626.2,98626.2,98724.4,3.40715e+17,0.136939
3.0,3.0,50.01474,15479.186,-357.907,-422.161,-27143.532,-1e-05,-0.00016,50.10901,222.718,,0.0,-0.0015,-0.00458,22.87378,55.08737,,,,,,2.97,0.000213576,98726.4,98726.4,98678.4,3.47143e+17,0.140591
3.0,3.0,50.0142,15479.241,-357.906,-422.161,-27143.5,-0.00028,-7e-05,50.10843,222.641,,0.0,-0.00149,-0.00455,22.87382,55.08684,,,,,,3.025,0.000213628,98750.3,98750.3,98633.4,3.53572e+17,0.14146
3.0,3.0,50.01414,15479.296,-357.905,-422.161,-27143.5,-0.00022,0.00015,50.10833,222.595,,0.0,-0.00151,-0.00459,22.87368,55.08677,,,,,,3.08,0.000213136,98523,98523,98589.4,3.60001e+17,0.133179
3.0,3.0,50.01281,15479.351,-357.906,-422.161,-27143.534,-0.0001,-0.00025,50.10656,221.89,,0.0,-0.0015,-0.00457,22.87383,55.08545,,,,,,3.135,0.000213324,98609.6,98609.6,98546.2,3.66429e+17,0.136335
3.0,3.0,50.01212,15479.406,-357.906,-422.162,-27143.532,0.0001,0.00042,50.10572,221.672,,0.0,-0.0015,-0.00454,22.8737,55.08475,,,,,,3.19,0.0002132467,98574,98574,98503.9,3.72858e+17,0.135039
3.0,3.0,50.01212,15479.461,-357.907,-422.161,-27143.5,-0.00021,9e-05,50.10571,221.647,,0.0,-0.00153,-0.00453,22.87361,55.08476,,,,,,3.245,0.000212775,98356,98356,98462.4,3.79286e+17,0.127095
3.0,3.0,50.01117,15479.516,-357.907,-422.162,-27143.533,0.00014,6e-05,50.10441,221.098,,0.0,-0.00148,-0.00453,22.87364,55.08381,,,,,,3.3,0.000213077,98495.6,98495.6,98421.7,3.85715e+17,0.13218
3.0,3.0,50.01101,15479.571,-357.906,-422.161,-27143.5,-0.00042,2e-05,50.1042,221.024,,0.0,-0.00149,-0.00452,22.87378,55.08365,,,,,,3.355,0.000213102,98507.3,98507.3,98381.7,3.92144e+17,0.132606
3.0,3.0,50.01115,15479.626,-357.906,-422.161,-27143.5,-6e-05,5e-05,50.1043,220.97,,0.0,-0.00149,-0.00457,22.8739,55.08379,,,,,,3.41,0.000212577,98264.4,98264.4,98342.5,3.98572e+17,0.123757
3.0,3.0,50.01021,15479.681,-357.906,-422.1619,-27143.533,-0.00026,-0.00038,50.103,220.41,,0.0,-0.00151,-0.00459,22.87356,55.08284,,,,,,3.465,0.000212734,98337,98337,98304,4.05001e+17,0.126402
3.0,3.0,50.0098,15479.736,-357.906,-422.162,-27143.5,-9e-05,6e-05,50.1025,220.281,,0.0,-0.00158,-0.00457,22.87378,55.08243,,,,,,3.52,0.000212744,98341.7,98341.7,98266.1,4.11429e+17,0.126574
3.0,3.0,50.01011,15479.791,-357.906,-422.161,-27143.5,-0.00029,-0.00057,50.10286,220.336,,0.0,-0.00155,-0.00455,22.87373,55.08275,,,,,,3.575,0.000212211,98095.1,98095.1,98228.9,4.17858e+17,0.117588
3.0,3.0,50.00922,15479.846,-357.907,-422.163,-27143.5,0.00027,-0.00024,50.1016,219.765,,0.0,-0.00155,-0.00457,22.87379,55.08186,,,,,,3.63,0.000212453,98207.1,98207.1,98192.3,4.24286e+17,0.121667
3.0,3.0,50.00889,15479.901,-357.907,-422.1601,-27143.5,-1e-05,0.00015,50.10122,219.692,,0.0,-0.00157,-0.00452,22.87385,55.08153,,,,,,3.685,0.000212517,98236.8,98236.8,98156.3,4.30715e+17,0.122749
3.0,3.0,50.00965,15479.956,-357.906,-422.161,-27143.533,-0.00015,0.00041,50.10207,219.8242,,0.0,-0.00153,-0.00452,22.87378,55.08229,,,,,,3.74,0.000212015,98004.6,98004.6,98120.9,4.37144e+17,0.114289
3.0,3.0,50.00858,15480.011,-357.906,-422.161,-27143.5,-0.00024,0.00019,50.10058,219.184,,0.0,-0.00159,-0.00452,22.87377,55.08122,,,,,,3.795,0.000212305,98138.6,98138.6,98086,4.43572e+17,0.119173
3.0,3.0,50.00822,15480.066,-357.907,-422.162,-27143.533,-0.00021,0.00016,50.10016,219.088,,0.0,-0.00149,-0.00452,22.87388,55.08086,,,,,,3.85,0.000212259,98117.7,98117.7,98051.7,4.50001e+17,0.11841
3.0,3.0,50.00887,15480.121,-357.906,-422.161,-27143.534,-0.00011,0.00024,50.10096,219.315,,0.0,-0.00149,-0.00448,22.87383,55.08151,,,,,,3.905,0.000211707,97862.2,97862.2,98017.8,4.56429e+17,0.109102
3.0,3.0,50.00803,15480.176,-357.906,-422.161,-27143.5,-0.00021,-0.00048,50.09972,218.695,,0.0,-0.00148,-0.00452,22.87384,55.08067,,,,,,3.96,0.00021196,97979.4,97979.4,97984.5,4.62858e+17,0.11337
3.0,3.0,50.00743,15480.231,-357.907,-422.1619,-27143.5,0.0002,-0.00062,50.09902,218.54,,0.0,-0.00153,-0.0045,22.87379,55.08006,,,,,,4.015,0.000211926,97963.5,97963.5,97951.7,4.69286e+17,0.112791
3.0,3.0,50.00831,15480.286,-357.907,-422.161,-27143.534,-0.00015,7e-05,50.10008,218.826,,0.0,-0.00152,-0.00453,22.87386,55.08095,,,,,,4.07,0.000211517,97774.4,97774.4,97919.3,4.75715e+17,0.105899
3.0,3.0,50.00748,15480.341,-357.908,-422.1611,-27143.5,-0.00011,6e-05,50.09886,218.216,,0.0,-0.0015,-0.00446,22.87388,55.08012,,,,,,4.125,0.000211907,97954.6,97954.6,97887.5,4.82144e+17,0.112468
3.0,3.0,50.0069,15480.396,-357.907,-422.162,-27143.533,0.00014,-0.00064,50.09815,218.024,,0.0,-0.00149,-0.00448,22.87385,55.07953,,,,,,4.18,0.000211854,97930.1,97930.1,97856,4.88572e+17,0.111576
3.0,3.0,50.00793,15480.451,-357.907,-422.162,-27143.5,0.00024,0.00032,50.09942,218.393,,0.0,-0.00152,-0.00449,22.87388,55.08057,,,,,,4.235,0.000211249,97650.4,97650.4,97825,4.95001e+17,0.101384
3.0,3.0,50.00701,15480.506,-357.906,-422.162,-27143.533,-0.00038,-1e-05,50.09812,217.7882,,0.0,-0.00149,-0.0045,22.87382,55.07965,,,,,,4.29,0.000211624,97823.9,97823.9,97794.4,5.01429e+17,0.107703
3.0,3.0,50.00656,15480.561,-357.906,-422.1611,-27143.533,-6e-05,2e-05,50.09758,217.654,,0.0,-0.00145,-0.00454,22.87378,55.07919,,,,,,4.345,0.000211659,97840.2,97840.2,97764.2,5.07858e+17,0.108298
3.0,3.0,50.00749,15480.616,-357.907,-422.161,-27143.534,-6e-05,-0.00033,50.09871,217.968,,0.0,-0.00146,-0.0045,22.87401,55.08013,,,,,,4.4,0.000211017,97543.3,97543.3,97734.4,5.14287e+17,0.097481
3.0,3.0,50.00697,15480.671,-357.908,-422.161,-27143.534,-0.00019,-0.0002,50.09789,217.494,,0.0,-0.00147,-0.00453,22.87398,55.07961,,,,,,4.455,0.000211492,97762.9,97762.9,97705,5.20715e+17,0.10548
3.0,3.0,50.00626,15480.726,-357.907,-422.163,-27143.533,-0.00037,0.00013,50.09704,217.289,,0.0,-0.0015,-0.0046,22.87384,55.07889,,,,,,4.51,0.000211346,97695.6,97695.6,97675.9,5.27144e+17,0.103029
3.0,3.0,50.00724,15480.781,-357.906,-422.1618,-27143.5,0.00033,0.00035,50.09824,217.634,,0.0,-0.00149,-0.00448,22.87392,55.07988,,,,,,4.565,0.000210887,97483.3,97483.3,97647.3,5.33572e+17,0.0952943
3.0,3.0,50.00622,15480.836,-357.907,-422.161,-27143.5,-0.00021,0.0002,50.09683,217.022,,0.0,-0.00147,-0.00451,22.87379,55.07886,,,,,,4.62,0.00021128,97664.8,97664.8,97619,5.40001e+17,0.101907
3.0,3.0,50.00603,15480.891,-357.906,-422.161,-27143.534,-0.00014,0.00053,50.09659,216.946,,0.0,-0.00149,-0.00447,22.87389,55.07866,,,,,,4.675,0.00021131,97679,97679,97591,5.46429e+17,0.102425
3.0,3.0,50.00686,15480.946,-357.906,-422.16,-27143.5,0.00042,0.0002,50.09762,217.266,,0.0,-0.00152,-0.00446,22.87384,55.07949,,,,,,4.73,0.000210662,97379.4,97379.4,97563.4,5.52858e+17,0.0915088
3.0,3.0,50.00593,15481.001,-357.905,-422.162,-27143.5,4e-05,-0.00055,50.09635,216.715,,0.0,-0.00149,-0.00448,22.87388,55.07857,,,,,,4.785,0.000210913,97495.4,97495.4,97536.1,5.59287e+17,0.0957341
3.0,3.0,50.00579,15481.056,-357.906,-422.161,-27143.533,0.00012,-2e-05,50.09614,216.618,,0.0,-0.00151,-0.0045,22.87393,55.07842,,,,,,4.84,0.00021096,97516.9,97516.9,97509.1,5.65715e+17,0.0965168
3.0,3.0,50.00654,15481.111,-357.906,-422.1619,-27143.535,-0.00023,-0.00017,50.09706,216.871,,0.0,-0.00149,-0.00448,22.87401,55.07918,,,,,,4.895,0.000210571,97337.2,97337.2,97482.5,5.72144e+17,0.0899706
3.0,3.0,50.00626,15481.166,-357.907,-422.162,-27143.534,-6e-05,-0.00035,50.09659,216.586,,0.0,-0.00153,-0.00442,22.87387,55.0789,,,,,,4.95,0.000210772,97430.1,97430.1,97456.2,5.78572e+17,0.0933547
3.0,3.0,50.00572,15481.221,-357.907,-422.1611,-27143.5,-0.00028,5e-05,50.09589,216.344,,0.0,-0.00151,-0.00444,22.87366,55.07835,,,,,,5.005,0.000210883,97481.2,97481.2,97430.2,5.85001e+17,0.0952189
3.0,3.0,50.0065,15481.276,-357.905,-422.161,-27143.533,-0.00034,8e-05,50.09685,216.618,,0.0,-0.00153,-0.00444,22.8738,55.07913,,,,,,5.06,0.000210414,97264.6,97264.6,97404.4,5.9143e+17,0.0873238
3.0,3.0,50.00585,15481.331,-357.907,-422.162,-27143.534,5e-05,-0.00017,50.09594,216.211,,0.0,-0.00149,-0.00443,22.87402,55.07848,,,,,,5.115,0.000210652,97374.9,97374.9,97379,5.97858e+17,0.0913422
3.0,3.0,50.00538,15481.386,-357.905,-422.162,-27143.533,0.0001,-0.00024,50.09535,216.018,,0.0,-0.00155,-0.00445,22.87397,55.07802,,,,,,5.17,0.000210771,97429.8,97429.8,97353.9,6.04287e+17,0.0933455
3.0,3.0,50.00601,15481.441,-357.907,-422.161,-27143.5,7e-05,-5e-05,50.0961,216.207,,0.0,-0.00151,-0.00453,22.87403,55.07865,,,,,,5.225,0.00021027,97198.3,97198.3,97329,6.10715e+17,0.0849077
3.0,3.0,50.00561,15481.496,-357.906,-422.162,-27143.5,0.00018,7e-05,50.09552,215.924,,0.0,-0.00151,-0.00451,22.8739,55.07825,,,,,,5.28,0.000210486,97298,97298,97304.5,6.17144e+17,0.0885404
3.0,3.0,50.00478,15481.551,-357.905,-422.162,-27143.533,0.00021,-8e-05,50.09451,215.6446,,0.0,-0.00149,-0.00455,22.8739,55.07742,,,,,,5.335,0.000210626,97362.8,97362.8,97280.2,6.23572e+17,0.0909041
3.0,3.0,50.00553,15481.606,-357.907,-422.162,-27143.534,-3e-05,0.00037,50.09542,215.903,,0.0,-0.00152,-0.00454,22.87401,55.07816,,,,,,5.39,0.000210143,97139.2,97139.2,97256.1,6.30001e+17,0.0827535
3.0,3.0,50.00535,15481.661,-357.9069,-422.161,-27143.533,-0.00014,-0.00012,50.09505,215.614,,0.0,-0.00147,-0.0045,22.87396,55.07798,,,,,,5.445,0.000210343,97231.6,97231.6,97232.4,6.3643e+17,0.0861211
3.0,3.0,50.00507,15481.716,-357.906,-422.161,-27143.533,-0.00017,-0.00055,50.09469,215.49,,0.0,-0.00149,-0.00455,22.87407,55.0777,,,,,,5.5,0.00021052,97313.4,97313.4,97208.9,6.42858e+17,0.0891044
3.0,3.0,50.00584,15481.771,-357.907,-422.1611,-27143.5,-1e-05,0.00037,50.09567,215.808,,0.0,-0.00147,-0.00448,22.87386,55.07848,,,,,,5.555,0.000209984,97066,97066,97185.6,6.49287e+17,0.0800882
3.0,3.0,50.00523,15481.826,-357.906,-422.161,-27143.5,2e-05,4e-05,50.09478,215.378,,0.0,-0.00148,-0.00456,22.87401,55.07787,,,,,,5.61,0.000210196,97163.7,97163.7,97162.6,6.55715e+17,0.0836493
3.0,3.0,50.00475,15481.881,-357.906,-422.161,-27143.535,3e-05,-0.00045,50.09417,215.171,,0.0,-0.00149,-0.00457,22.87409,55.07739,,,,,,5.665,0.000210339,97230,97230,97139.8,6.62144e+17,0.0860647
3.0,3.0,50.00579,15481.936,-357.907,-422.161,-27143.535,0.00021,-5e-05,50.09546,215.563,,0.0,-0.00154,-0.00453,22.87402,55.07842,,,,,,5.72,0.000209819,96989.7,96989.7,97117.3,6.68573e+17,0.0773084
3.0,3.0,50.00551,15481.991,-357.907,-422.1609,-27143.535,-0.00024,-1e-05,50.09501,215.294,,0.0,-0.00153,-0.00449,22.87417,55.07815,,,,,,5.775,0.000210019,97082.2,97082.2,97095.1,6.75001e+17,0.0806792
3.0,3.0,50.00413,15482.046,-357.907,-422.16,-27143.536,0.00011,-0.00021,50.09334,214.8289,,0.0,-0.00149,-0.00445,22.87421,55.07677,,,,,,5.83,0.000210299,97211.5,97211.5,97073,6.8143e+17,0.0853908
3.0,3.0,50.005,15482.101,-357.907,-422.161,-27143.5,0.00021,0.00019,50.09439,215.123,,0.0,-0.00149,-0.0045,22.87395,55.07763,,,,,,5.885,0.000209682,96926.3,96926.3,97051.2,6.87858e+17,0.0749976
3.0,3.0,50.00449,15482.156,-357.907,-422.162,-27143.5,0.00013,9e-05,50.09364,214.75,,0.0,-0.0015,-0.0045,22.87402,55.07713,,,,,,5.94,0.000209821,96990.7,96990.7,97029.7,6.94287e+17,0.077344
3.0,3.0,50.0049,15482.211,-357.906,-422.161,-27143.536,9e-05,-0.00017,50.09409,214.819,,0.0,-0.00145,-0.00449,22.87392,55.07753,,,,,,5.995,0.000210194,97162.9,97162.9,97008.3,7.00715e+17,0.0836181
3.0,3.0,50.00574,15482.266,-357.905,-422.162,-27143.536,9e-05,-0.00022,50.09518,215.199,,0.0,-0.00152,-0.00452,22.87406,55.07838,,,,,,6.05,0.000209551,96865.9,96865.9,96987.2,7.07144e+17,0.0727958
3.0,3.0,50.00494,15482.321,-357.906,-422.162,-27143.536,-0.0001,0.00016,50.09407,214.72,,0.0,-0.00148,-0.00454,22.87396,55.07758,,,,,,6.105,0.000209919,97035.9,97035.9,96966.3,7.13573e+17,0.0789899
3.0,3.0,50.00425,15482.376,-357.906,-422.161,-27143.5,-0.00027,-9e-05,50.09321,214.454,,0.0,-0.00148,-0.00451,22.87399,55.07689,,,,,,6.16,0.000210094,97116.5,97116.5,96945.6,7.20001e+17,0.0819284
3.0,3.0,50.00539,15482.431,-357.907,-422.16,-27143.536,0.00028,0.00011,50.0947,214.992,,0.0,-0.00147,-0.0045,22.874,55.07803,,,,,,6.215,0.000209369,96781.7,96781.7,96925.1,7.2643e+17,0.0697287
3.0,3.0,50.00484,15482.486,-357.908,-422.161,-27143.5,-0.00016,-0.00047,50.09386,214.546,,0.0,-0.00152,-0.00452,22.87386,55.07747,,,,,,6.27,0.000209662,96916.9,96916.9,96904.8,7.32858e+17,0.0746537
3.0,3.0,50.00416,15482.541,-357.906,-422.1619,-27143.536,-1e-05,0.0002,50.093,214.276,,0.0,-0.00159,-0.00449,22.87415,55.0768,,,,,,6.325,0.00020992,97036.1,97036.1,96884.8,7.39287e+17,0.0789975
3.0,3.0,50.00531,15482.596,-357.907,-422.162,-27143.5,-0.00026,-1e-05,50.09447,214.7641,,0.0,-0.00146,-0.00449,22.87404,55.07795,,,,,,6.38,0.000209236,96720.1,96720.1,96864.9,7.45716e+17,0.0674822
3.0,3.0,50.00492,15482.651,-357.907,-422.162,-27143.5,0.0002,0.00025,50.09384,214.398,,0.0,-0.00145,-0.00448,22.87414,55.07755,,,,,,6.435,0.000209527,96854.8,96854.8,96845.3,7.52144e+17,0.0723922
3.0,3.0,50.00418,15482.706,-357.907,-422.161,-27143.536,-6e-05,0.00018,50.09294,214.143,,0.0,-0.00143,-0.00455,22.87393,55.07681,,,,,,6.49,0.000209713,96940.5,96940.5,96825.8,7.58573e+17,0.0755164
3.0,3.0,50.00532,15482.761,-357.907,-422.161,-27143.5,0.00013,0.00016,50.09436,214.579,,0.0,-0.00148,-0.00449,22.8742,55.07795,,,,,,6.545,0.000209144,96677.4,96677.4,96806.6,7.65001e+17,0.0659289
3.0,3.0,50.00459,15482.816,-357.907,-422.161,-27143.537,1e-05,-1e-05,50.09336,214.173,,0.0,-0.00149,-0.00452,22.87412,55.07722,,,,,,6.6,0.000209437,96812.9,96812.9,96787.5,7.7143e+17,0.0708643
3.0,3.0,50.00413,15482.871,-357.905,-422.161,-27143.5,6e-05,-2e-05,50.09277,213.956,,0.0,-0.00152,-0.00451,22.8741,55.07677,,,,,,6.655,0.00020956,96870.1,96870.1,96768.7,7.77858e+17,0.0729485
3.0,3.0,50.00507,15482.926,-357.906,-422.161,-27143.5,-0.00038,0.00019,50.09398,214.368,,0.0,-0.00157,-0.00452,22.87423,55.07771,,,,,,6.71,0.000209048,96633.3,96633.3,96750,7.84287e+17,0.0643211
3.0,3.0,50.00448,15482.981,-357.907,-422.161,-27143.5,0.00012,-0.00021,50.09311,213.944,,0.0,-0.00148,-0.00451,22.87413,55.07711,,,,,,6.765,0.000209316,96756.9,96756.9,96731.5,7.90716e+17,0.0688265
3.0,3.0,50.00403,15483.036,-357.907,-422.162,-27143.537,-9e-05,-1e-05,50.09258,213.813,,0.0,-0.00147,-0.00453,22.8741,55.07667,,,,,,6.82,0.000209478,96832,96832,96713.2,7.97144e+17,0.0715623
3.0,3.0,50.00484,15483.091,-357.905,-422.161,-27143.5,-4e-05,0.00015,50.09362,214.169,,0.0,-0.00147,-0.00454,22.87405,55.07748,,,,,,6.875,0.000209028,96624.1,96624.1,96695.1,8.03573e+17,0.0639841
3.0,3.0,50.00467,15483.146,-357.906,-422.161,-27143.537,0.00025,4e-05,50.09329,213.925,,0.0,-0.00151,-0.00449,22.87429,55.07731,,,,,,6.93,0.000209183,96695.6,96695.6,96677.2,8.10001e+17,0.0665893
3.0,3.0,50.00408,15483.201,-357.907,-422.161,-27143.5,-0.00027,-9e-05,50.09253,213.66,,0.0,-0.00144,-0.00446,22.87424,55.07672,,,,,,6.985,0.000209318,96757.8,96757.8,96659.4,8.1643e+17,0.0688563
3.0,3.0,50.00483,15483.256,-357.906,-422.161,-27143.537,-5e-05,0.0003,50.09349,213.979,,0.0,-0.00147,-0.00447,22.87406,55.07747,,,,,,7.04,0.00020889,96560.3,96560.3,96641.9,8.22859e+17,0.0616613
3.0,3.0,50.00464,15483.311,-357.906,-422.161,-27143.535,5e-05,0.00024,50.09314,213.739,,0.0,-0.00149,-0.00448,22.87415,55.07728,,,,,,7.095,0.000209045,96631.7,96631.7,96624.5,8.29287e+17,0.064264
3.0,3.0,50.00395,15483.366,-357.907,-422.161,-27143.5,-0.00031,-0.00014,50.09226,213.442,,0.0,-0.00153,-0.00453,22.87428,55.07658,,,,,,7.15,0.000209043,96630.8,96630.8,96607.3,8.35716e+17,0.0642286
3.0,3.0,50.0048,15483.421,-357.906,-422.1611,-27143.5,-0.00059,9e-05,50.09334,213.81,,0.0,-0.00145,-0.0045,22.87428,55.07743,,,,,,7.205,0.00020876,96500.2,96500.2,96590.2,8.42144e+17,0.0594724
3.0,3.0,50.00464,15483.476,-357.905,-422.161,-27143.537,-0.0004,0.00019,50.09304,213.591,,0.0,-0.0015,-0.00453,22.87406,55.07728,,,,,,7.26,0.000208914,96571.4,96571.4,96573.3,8.48573e+17,0.0620655
3.0,3.0,50.00388,15483.531,-357.906,-422.1619,-27143.5,-8e-05,-8e-05,50.09205,213.237,,0.0,-0.00148,-0.00452,22.87418,55.07651,,,,,,7.315,0.00020917,96689.6,96689.6,96556.6,8.55001e+17,0.0663707
3.0,3.0,50.00491,15483.586,-357.908,-422.162,-27143.5,0.00017,0.00036,50.09336,213.6652,,0.0,-0.00149,-0.00452,22.87406,55.07754,,,,,,7.37,0.000208734,96487.8,96487.8,96540.1,8.6143e+17,0.05902
3.0,3.0,50.00438,15483.641,-357.907,-422.161,-27143.5,-7e-05,-4e-05,50.09266,213.4064,,0.0,-0.00148,-0.00451,22.87416,55.07701,,,,,,7.425,0.000208707,96475.6,96475.6,96523.7,8.67859e+17,0.0585743
3.0,3.0,50.00378,15483.696,-357.906,-422.161,-27143.538,-1e-05,-3e-05,50.09185,213.083,,0.0,-0.00151,-0.00451,22.87424,55.07641,,,,,,7.48,0.000209082,96649.1,96649.1,96507.5,8.74287e+17,0.0648963
3.0,3.0,50.00469,15483.751,-357.906,-422.162,-27143.538,-0.00019,4e-05,50.09304,213.509,,0.0,-0.0014,-0.0045,22.87441,55.07733,,,,,,7.535,0.000208678,96462.1,96462.1,96491.4,8.80716e+17,0.0580811
3.0,3.0,50.00451,15483.806,-357.904,-422.161,-27143.5,-0.00021,-9e-05,50.09273,213.302,,0.0,-0.00147,-0.00453,22.87425,55.07715,,,,,,7.59,0.000208542,96399.1,96399.1,96475.5,8.87144e+17,0.0557873
3.0,3.0,50.00373,15483.861,-357.907,-422.161,-27143.5,0.00028,-0.00051,50.09171,212.932,,0.0,-0.0015,-0.00451,22.87421,55.07636,,,,,,7.645,0.000209003,96612.3,96612.3,96459.8,8.93573e+17,0.0635566
3.0,3.0,50.0046,15483.916,-357.907,-422.162,-27143.536,-5e-05,-9e-05,50.09286,213.3642,,0.0,-0.0015,-0.00453,22.87429,55.07724,,,,,,7.7,0.000208659,96453.6,96453.6,96444.2,9.00001e+17,0.0577715
3.0,3.0,50.00437,15483.971,-357.907,-422.1611,-27143.538,0.00022,7e-05,50.09249,213.149,,0.0,-0.00152,-0.00452,22.87421,55.07701,,,,,,7.755,0.000208423,96344.2,96344.2,96428.8,9.0643e+17,0.0537859
3.0,3.0,50.00345,15484.026,-357.906,-422.161,-27143.537,-0.00011,-0.0002,50.09131,212.738,,0.0,-0.00148,-0.00449,22.87415,55.07609,,,,,,7.81,0.000208896,96562.9,96562.9,96413.5,9.12859e+17,0.0617573
3.0,3.0,50.00468,15484.081,-357.906,-422.162,-27143.538,0.00049,0.00016,50.09289,213.291,,0.0,-0.00149,-0.00455,22.87425,55.07732,,,,,,7.865,0.000208613,96432.1,96432.1,96398.3,9.19287e+17,0.0569893
3.0,3.0,50.00456,15484.136,-357.906,-422.162,-27143.538,-0.00027,-8e-05,50.09261,213.051,,0.0,-0.00147,-0.00452,22.87419,55.07719,,,,,,7.92,0.000208261,96269.5,96269.5,96383.4,9.25716e+17,0.0510628
3.0,3.0,50.00355,15484.191,-357.9079,-422.161,-27143.538,0.00057,-0.00048,50.09131,212.591,,0.0,-0.00151,-0.00452,22.87426,55.07619,,,,,,7.975,0.000208841,96537.7,96537.7,96368.5,9.32144e+17,0.0608356
3.0,3.0,50.00444,15484.246,-357.905,-422.161,-27143.5,-0.00038,0.00034,50.09255,213.133,,0.0,-0.00151,-0.00452,22.87438,55.07708,,,,,,8.03,0.000208377,96322.9,96322.9,96353.9,9.38573e+17,0.0530106
3.0,3.0,50.00418,15484.301,-357.907,-422.162,-27143.5,6e-05,0.00025,50.0921,212.844,,0.0,-0.0015,-0.00456,22.87426,55.07682,,,,,,8.085,0.000208194,96238.6,96238.6,96339.3,9.45002e+17,0.0499395
3.0,3.0,50.00307,15484.356,-357.907,-422.162,-27143.5,0.00025,-0.0002,50.09064,212.301,,0.0,-0.00147,-0.00456,22.87425,55.0757,,,,,,8.14,0.000208703,96473.5,96473.5,96324.9,9.5143e+17,0.0584973
3.0,3.0,50.00423,15484.411,-357.906,-422.1611,-27143.5,-0.00033,1e-05,50.09218,212.887,,0.0,-0.00151,-0.00453,22.87444,55.07687,,,,,,8.195,0.000208314,96293.9,96293.9,96310.7,9.57859e+17,0.0519521
3.0,3.0,50.0043,15484.466,-357.907,-422.161,-27143.538,-0.00026,8e-05,50.09217,212.764,,0.0,-0.00151,-0.00453,22.87434,55.07694,,,,,,8.25,0.000208042,96168.2,96168.2,96296.5,9.64287e+17,0.0473716
3.0,3.0,50.00333,15484.521,-357.905,-422.1619,-27143.537,-4e-05,-0.00017,50.0909,212.287,,0.0,-0.00148,-0.00456,22.87442,55.07597,,,,,,8.305,0.000208571,96412.9,96412.9,96282.6,9.70716e+17,0.0562898
3.0,3.0,50.00447,15484.576,-357.906,-422.162,-27143.537,-0.00058,0.00012,50.09241,212.867,,0.0,-0.00149,-0.00456,22.87421,55.0771,,,,,,8.36,0.000208181,96232.6,96232.6,96268.7,9.77144e+17,0.0497208
3.0,3.0,50.00426,15484.631,-357.906,-422.1601,-27143.5,-0.00067,0.00019,50.09203,212.607,,0.0,-0.00148,-0.00456,22.87417,55.07689,,,,,,8.415,0.000208033,96164,96164,96255,9.83573e+17,0.0472187
3.0,3.0,50.00328,15484.686,-357.906,-422.161,-27143.537,-0.00014,-0.00027,50.09081,212.227,,0.0,-0.0015,-0.00454,22.87432,55.07592,,,,,,8.47,0.000208494,96377.3,96377.3,96241.5,9.90002e+17,0.0549918
3.0,3.0,50.00436,15484.741,-357.906,-422.162,-27143.537,-0.00041,-0.00013,50.09221,212.731,,0.0,-0.0015,-0.00456,22.87435,55.077,,,,,,8.525,0.000208113,96200.8,96200.8,96228,9.9643e+17,0.0485601
3.0,3.0,50.00399,15484.796,-357.905,-422.161,-27143.5,0.0004,0.00016,50.09165,212.428,,0.0,-0.00151,-0.00454,22.87425,55.07663,,,,,,8.58,0.000208007,96151.8,96151.8,96214.7,1.00286e+18,0.0467755
3.0,3.0,50.00315,15484.851,-357.907,-422.161,-27143.537,-0.00028,8e-05,50.09056,212.039,,0.0,-0.00153,-0.00456,22.87424,55.07579,,,,,,8.635,0.000208369,96319.3,96319.3,96201.6,1.00929e+18,0.0528804
3.0,3.0,50.00422,15484.906,-357.906,-422.162,-27143.538,0.00037,9e-05,50.09199,212.6049,,0.0,-0.00148,-0.00456,22.87432,55.07685,,,,,,8.69,0.000208061,96177,96177,96188.5,1.01572e+18,0.0476938
3.0,3.0,50.00406,15484.961,-357.907,-422.161,-27143.5,0.0001,0.0,50.09165,212.322,,0.0,-0.00148,-0.00458,22.87431,55.0767,,,,,,8.745,0.000207854,96081.4,96081.4,96175.6,1.02214e+18,0.0442097
3.0,3.0,50.00316,15485.016,-357.906,-422.161,-27143.537,-4e-05,-3e-05,50.09052,211.968,,0.0,-0.0015,-0.00456,22.87442,55.07579,,,,,,8.8,0.000208208,96244.9,96244.9,96162.8,1.02857e+18,0.0501699
3.0,3.0,50.00414,15485.071,-357.906,-422.162,-27143.537,0.0003,0.00064,50.0918,212.435,,0.0,-0.0015,-0.00455,22.87431,55.07678,,,,,,8.855,0.000207996,96146.9,96146.9,96150.1,1.035e+18,0.0465958
3.0,3.0,50.00407,15485.126,-357.907,-422.161,-27143.5,5e-05,-0.0001,50.09161,212.248,,0.0,-0.0015,-0.00459,22.87437,55.07671,,,,,,8.91,0.00020775,96032.9,96032.9,96137.6,1.04143e+18,0.0424449
3.0,3.0,50.00343,15485.181,-357.906,-422.1619,-27143.5,0.00024,-8e-05,50.09076,211.93,,0.0,-0.0015,-0.00454,22.87443,55.07606,,,,,,8.965,0.000208168,96226.2,96226.2,96125.2,1.04786e+18,0.0494857
3.0,3.0,50.00428,15485.236,-357.906,-422.161,-27143.538,-0.00017,0.00026,50.09188,212.337,,0.0,-0.00146,-0.00454,22.8743,55.07692,,,,,,9.02,0.000207994,96146.2,96146.2,96112.9,1.05429e+18,0.0465707
3.0,3.0,50.00385,15485.291,-357.906,-422.1619,-27143.5,0.00017,-0.00053,50.09128,212.074,,0.0,-0.00144,-0.00456,22.87437,55.07649,,,,,,9.075,0.000207635,95980,95980,96100.7,1.06072e+18,0.0405168
3.0,3.0,50.00334,15485.346,-357.907,-422.162,-27143.538,-0.00015,-0.00066,50.09063,211.852,,0.0,-0.00148,-0.00455,22.87438,55.07598,,,,,,9.13,0.000207943,96122.4,96122.4,96088.7,1.06714e+18,0.0457049
3.0,3.0,50.00398,15485.401,-357.906,-422.161,-27143.5,-6e-05,0.00034,50.09149,212.1891,,0.0,-0.00147,-0.00458,22.87442,55.07662,,,,,,9.185,0.000207931,96117,96117,96076.7,1.07357e+18,0.0455068
3.0,3.0,50.00419,15485.456,-357.906,-422.161,-27143.537,-1e-05,0.00021,50.09162,212.0741,,0.0,-0.00147,-0.00456,22.87432,55.07683,,,,,,9.24,0.000207506,95920.6,95920.6,96064.9,1.08e+18,0.0383494
3.0,3.0,50.00329,15485.511,-357.906,-422.161,-27143.5,0.00021,-0.00014,50.0905,211.731,,0.0,-0.00146,-0.00456,22.87422,55.07593,,,,,,9.295,0.000207764,96039.8,96039.8,96053.2,1.08643e+18,0.0426959
3.0,3.0,50.00406,15485.566,-357.907,-422.161,-27143.537,-0.00023,0.00043,50.09149,212.074,,0.0,-0.00147,-0.00454,22.87435,55.0767,,,,,,9.35,0.00020784,96074.8,96074.8,96041.6,1.09286e+18,0.0439688
3.0,3.0,50.00386,15485.621,-357.9078,-422.1611,-27143.538,-0.00039,0.00015,50.09124,211.996,,0.0,-0.00146,-0.00455,22.87445,55.0765,,,,,,9.405,0.00020735,95848.3,95848.3,96030.2,1.09929e+18,0.0357155
3.0,3.0,50.00315,15485.676,-357.906,-422.161,-27143.538,0.00019,-5e-05,50.09026,211.585,,0.0,-0.0015,-0.00457,22.87425,55.07579,,,,,,9.46,0.000207823,96066.8,96066.8,96018.8,1.10572e+18,0.0436799
3.0,3.0,50.00381,15485.731,-357.906,-422.161,-27143.538,5e-05,-0.0,50.09114,211.911,,0.0,-0.00156,-0.00457,22.8745,55.07645,,,,,,,,,,,,
3.0,3.0,50.00421,15485.786,-357.907,-422.161,-27143.5,-0.00016,0.00011,50.09157,211.9764,,0.0,-0.00151,-0.00458,22.87446,55.07684,,,,,,,,,,,,
3.0,3.0,50.0032,15485.841,-357.907,-422.161,-27143.537,4e-05,-0.00036,50.09022,211.436,,0.0,-0.00143,-0.00453,22.87437,55.07584,,,,,,,,,,,,
3.0,3.0,50.00339,15485.896,-357.906,-422.162,-27143.5,0.00028,0.00011,50.09057,211.689,,0.0,-0.00151,-0.00453,22.87448,55.07602,,,,,,,,,,,,
3.0,3.0,50.00426,15485.951,-357.907,-422.161,-27143.539,-0.00047,7e-05,50.0916,211.938,,0.0,-0.0015,-0.00457,22.87438,55.0769,,,,,,,,,,,,
3.0,3.0,50.00323,15486.006,-357.906,-422.161,-27143.5,-0.00024,-0.00044,50.0902,211.359,,0.0,-0.00151,-0.00456,22.87438,55.07587,,,,,,,,,,,,
3.0,3.0,50.00346,15486.061,-357.906,-422.161,-27143.538,-0.00015,-0.00035,50.09054,211.535,,0.0,-0.00149,-0.00452,22.87452,55.0761,,,,,,,,,,,,
3.0,3.0,50.0044,15486.116,-357.907,-422.161,-27143.538,-0.00037,0.00025,50.09171,211.877,,0.0,-0.00147,-0.00453,22.8745,55.07704,,,,,,,,,,,,
3.0,3.0,50.00315,15486.171,-357.906,-422.162,-27143.5,-0.00014,0.00026,50.09003,211.227,,0.0,-0.00145,-0.00454,22.87434,55.07579,,,,,,,,,,,,
3.0,3.0,50.00362,15486.226,-357.906,-422.162,-27143.537,-0.00026,-0.00028,50.0907,211.54,,0.0,-0.00144,-0.00456,22.87456,55.07625,,,,,,,,,,,,
3.0,3.0,50.00425,15486.281,-357.906,-422.161,-27143.5,-1e-05,0.00038,50.09147,211.753,,0.0,-0.00146,-0.00456,22.87454,55.07689,,,,,,,,,,,,
3.0,3.0,50.0033,15486.336,-357.906,-422.162,-27143.5,-0.00028,0.00013,50.09013,211.153,,0.0,-0.00148,-0.00457,22.87428,55.07594,,,,,,,,,,,,
3.0,3.0,50.00352,15486.391,-357.907,-422.161,-27143.5,-0.00053,0.00019,50.09054,211.44,,0.0,-0.00151,-0.00454,22.87474,55.07615,,,,,,,,,,,,
3.0,3.0,50.00403,15486.446,-357.907,-422.161,-27143.537,0.00015,-2e-05,50.09116,211.601,,0.0,-0.00146,-0.00452,22.87465,55.07667,,,,,,,,,,,,
3.0,3.0,50.00324,15486.501,-357.907,-422.1611,-27143.5,-0.00058,-3e-05,50.09001,211.061,,0.0,-0.00144,-0.00456,22.87461,55.07587,,,,,,,,,,,,
3.0,3.0,50.00352,15486.556,-357.906,-422.161,-27143.5,-3e-05,-0.00013,50.09048,211.351,,0.0,-0.00151,-0.00456,22.87453,55.07616,,,,,,,,,,,,
3.0,3.0,50.00412,15486.611,-357.906,-422.161,-27143.5,0.00018,0.00013,50.09121,211.5483,,0.0,-0.0015,-0.00451,22.8746,55.07676,,,,,,,,,,,,
3.0,3.0,50.00304,15486.666,-357.905,-422.161,-27143.537,-0.00065,-0.00017,50.08975,210.964,,0.0,-0.00144,-0.00459,22.87467,55.07568,,,,,,,,,,,,
3.0,3.0,50.00352,15486.721,-357.907,-422.16,-27143.5,-0.00014,0.00012,50.09042,211.249,,0.0,-0.00143,-0.00451,22.87465,55.07616,,,,,,,,,,,,
3.0,3.0,50.00405,15486.776,-357.905,-422.162,-27143.537,0.00011,-0.00026,50.09105,211.404,,0.0,-0.00144,-0.00449,22.87446,55.07669,,,,,,,,,,,,
3.0,3.0,50.00316,15486.831,-357.907,-422.1619,-27143.5,0.00041,-0.00018,50.08986,210.947,,0.0,-0.00148,-0.00452,22.8744,55.07579,,,,,,,,,,,,
3.0,3.0,50.00334,15486.886,-357.906,-422.161,-27143.537,-0.00057,0.00027,50.09014,211.097,,0.0,-0.00145,-0.00456,22.87445,55.07598,,,,,,,,,,,,
3.0,3.0,50.00414,15486.941,-357.906,-422.1611,-27143.5,0.00085,-0.00023,50.0911,211.352,,0.0,-0.00144,-0.00452,22.87446,55.07677,,,,,,,,,,,,
3.0,3.0,50.00315,15486.996,-357.906,-422.161,-27143.538,0.00057,-0.00026,50.08979,210.848,,0.0,-0.00144,-0.0046,22.87473,55.07579,,,,,,,,,,,,
3.0,3.0,50.00349,15487.051,-357.907,-422.1601,-27143.537,-0.00063,-0.00013,50.09025,211.0398,,0.0,-0.00142,-0.00455,22.87464,55.07612,,,,,,,,,,,,
3.0,3.0,50.00421,15487.106,-357.906,-422.162,-27143.537,0.00147,-0.0001,50.09115,211.312,,0.0,-0.00146,-0.00451,22.87449,55.07685,,,,,,,,,,,,
3.0,3.0,50.00305,15487.161,-357.906,-422.161,-27143.5,-5e-05,-9e-05,50.08963,210.756,,0.0,-0.00147,-0.00457,22.87465,55.07569,,,,,,,,,,,,
3.0,3.0,50.0034,15487.216,-357.907,-422.161,-27143.538,0.00041,0.00017,50.09011,210.9512,,0.0,-0.00146,-0.00456,22.87444,55.07604,,,,,,,,,,,,
3.0,3.0,50.00404,15487.271,-357.906,-422.1619,-27143.5,-0.00053,1e-05,50.0909,211.195,,0.0,-0.00146,-0.00456,22.87481,55.07667,,,,,,,,,,,,
3.0,3.0,50.0034,15487.326,-357.906,-422.163,-27143.537,0.00022,6e-05,50.09003,210.833,,0.0,-0.00146,-0.00457,22.87463,55.07604,,,,,,,,,,,,
3.0,3.0,50.00305,15487.381,-357.908,-422.161,-27143.5,0.00056,-0.00013,50.08958,210.6814,,0.0,-0.00144,-0.00458,22.87468,55.07568,,,,,,,,,,,,
3.0,3.0,50.00402,15487.436,-357.907,-422.163,-27143.537,-0.00048,-2e-05,50.09081,211.0864,,0.0,-0.00145,-0.00459,22.87458,55.07665,,,,,,,,,,,,
3.0,3.0,50.00364,15487.491,-357.906,-422.1619,-27143.538,-0.0003,-0.00046,50.09023,210.766,,0.0,-0.00146,-0.00456,22.87457,55.07628,,,,,,,,,,,,
3.0,3.0,50.0025,15487.546,-357.906,-422.161,-27143.538,-0.00084,-0.00024,50.08884,210.392,,0.0,-0.00146,-0.00453,22.87463,55.07513,,,,,,,,,,,,
3.0,3.0,50.00406,15487.601,-357.9061,-422.161,-27143.536,0.0005,0.00058,50.09082,211.034,,0.0,-0.00145,-0.00458,22.87465,55.07669,,,,,,,,,,,,
3.0,3.0,50.00364,15487.656,-357.907,-422.162,-27143.537,-0.00043,4e-05,50.09019,210.719,,0.0,-0.00147,-0.00455,22.87445,55.07627,,,,,,,,,,,,
3.0,3.0,50.00316,15487.711,-357.907,-422.1611,-27143.537,6e-05,-0.00018,50.08955,210.464,,0.0,-0.0015,-0.00459,22.87464,55.0758,,,,,,,,,,,,
3.0,3.0,50.00372,15487.766,-357.906,-422.161,-27143.537,8e-05,0.00057,50.09038,210.881,,0.0,-0.00144,-0.00456,22.87459,55.07636,,,,,,,,,,,,
3.0,3.0,50.00361,15487.821,-357.907,-422.161,-27143.5,-0.0002,-0.00011,50.09006,210.561,,0.0,-0.00141,-0.00454,22.87459,55.07624,,,,,,,,,,,,
3.0,3.0,50.00298,15487.876,-357.907,-422.162,-27143.537,4e-05,-0.00045,50.08932,210.382,,0.0,-0.00146,-0.00457,22.87482,55.07562,,,,,,,,,,,,
3.0,3.0,50.00379,15487.931,-357.9059,-422.162,-27143.5,5e-05,6e-05,50.0904,210.791,,0.0,-0.00148,-0.00451,22.8746,55.07643,,,,,,,,,,,,
3.0,3.0,50.00338,15487.986,-357.906,-422.162,-27143.537,-0.00015,-3e-05,50.08974,210.411,,0.0,-0.00145,-0.0045,22.87463,55.07602,,,,,,,,,,,,
3.0,3.0,50.00302,15488.041,-357.907,-422.161,-27143.5,5e-05,-7e-05,50.08932,210.322,,0.0,-0.00142,-0.00451,22.87466,55.07565,,,,,,,,,,,,
3.0,3.0,50.00418,15488.096,-357.906,-422.162,-27143.537,9e-05,0.00018,50.09083,210.879,,0.0,-0.00143,-0.00457,22.87469,55.07681,,,,,,,,,,,,
3.0,3.0,50.00333,15488.151,-357.906,-422.161,-27143.5,2e-05,-0.00021,50.08964,210.339,,0.0,-0.00144,-0.00457,22.87457,55.07597,,,,,,,,,,,,
3.0,3.0,50.00296,15488.206,-357.907,-422.161,-27143.5,-0.00054,-0.00033,50.08917,210.186,,0.0,-0.00147,-0.00457,22.87473,55.0756,,,,,,,,,,,,
3.0,4.0,49.69015,15488.261,-357.906,-422.1611,-27143.538,0.00015,0.00056,49.76236,188.427,,0.0,-0.00143,-0.00456,22.87466,54.76278,,,,,,,,,,,,
3.0,4.0,48.86767,15488.316,-357.906,-422.161,-27143.538,-9e-05,0.00016,48.91468,149.267,,0.0,-0.00148,-0.00455,22.87478,53.94031,,,,,,,,,,,,
3.0,4.0,47.73181,15488.371,-357.907,-422.162,-27143.5,0.00033,0.00021,47.7544,111.3191,,0.0,-0.00152,-0.00453,22.87469,52.80445,,,,,,,,,,,,
3.0,4.0,46.42165,15488.426,-357.907,-422.162,-27143.538,0.0004,0.0001,46.42584,82.73695,,0.0,-0.00147,-0.0045,22.87461,51.49428,,,,,,,,,,,,
3.0,4.0,45.02404,15488.481,-357.906,-422.1618,-27143.538,-0.00026,0.00033,45.01619,64.02004,,0.0,-0.00153,-0.00455,22.87482,50.09668,,,,,,,,,,,,
3.0,4.0,43.59206,15488.536,-357.907,-422.161,-27143.538,9e-05,-6e-05,43.5773,53.27479,,0.0,-0.00151,-0.00453,22.87473,48.6647,,,,,,,,,,,,
3.0,4.0,42.15366,15488.591,-357.907,-422.162,-27143.538,-0.00025,0.00022,42.13442,46.31853,,0.0,-0.00147,-0.00452,22.8747,47.2263,,,,,,,,,,,,
3.0,4.0,40.71622,15488.646,-357.906,-422.16,-27143.539,0.00029,8e-05,40.69294,40.0457,,0.0,-0.00147,-0.00453,22.8747,45.78885,,,,,,,,,,,,
3.0,4.0,39.28593,15488.701,-357.906,-422.161,-27143.539,-0.00027,0.00049,39.25922,34.71797,,0.0,-0.00146,-0.0045,22.87465,44.35857,,,,,,,,,,,,
3.0,4.0,37.86226,15488.756,-357.907,-422.161,-27143.538,1e-05,0.0001,37.83248,29.93788,,0.0,-0.00147,-0.00453,22.87472,42.9349,,,,,,,,,,,,
3.0,4.0,36.44306,15488.811,-357.907,-422.162,-27143.538,0.00032,-1e-05,36.41024,25.21834,,0.0,-0.00153,-0.0045,22.87475,41.5157,,,,,,,,,,,,
3.0,4.0,35.0281,15488.866,-357.907,-422.162,-27143.538,-0.00034,-8e-05,34.99247,20.85991,,0.0,-0.00149,-0.00453,22.87485,40.10073,,,,,,,,,,,,
3.0,4.0,33.61884,15488.921,-357.907,-422.1619,-27143.5,0.0001,0.00026,33.58051,16.65171,,0.0,-0.00146,-0.00451,22.87478,38.69147,,,,,,,,,,,,
3.0,4.0,32.21104,15488.976,-357.906,-422.163,-27143.538,1e-05,0.00041,32.16999,12.42309,,0.0,-0.00158,-0.00453,22.8749,37.28368,,,,,,,,,,,,
3.0,4.0,30.80546,15489.031,-357.905,-422.161,-27143.538,-0.00018,0.00031,30.76191,8.54124,,0.0,-0.00142,-0.00454,22.87475,35.8781,,,,,,,,,,,,
3.0,4.0,29.40336,15489.086,-357.906,-422.161,-27143.538,0.00026,0.00056,29.3573,4.6392,,0.0,-0.00144,-0.00455,22.87487,34.476,,,,,,,,,,,,
3.0,4.0,28.00238,15489.141,-357.906,-422.162,-27143.538,-5e-05,0.00019,27.95399,1.02645,,0.0,-0.00143,-0.0045,22.87487,33.07501,,,,,,,,,,,,
3.0,4.0,26.60056,15489.196,-357.906,-422.162,-27143.5,-0.00011,-5e-05,26.5517,0.28261,,0.0,-0.00144,-0.00453,22.87479,31.6732,,,,,,,,,,,,
3.0,4.0,25.20372,15489.251,-357.908,-422.162,-27143.5,6e-05,0.00056,25.15479,0.16975,,0.0,-0.00144,-0.00452,22.87487,30.27636,,,,,,,,,,,,
3.0,4.0,23.80583,15489.306,-357.908,-422.162,-27143.539,-0.00019,0.00038,23.7568,0.01846,,0.0,-0.00139,-0.00447,22.8748,28.87847,,,,,,,,,,,,
3.0,4.0,22.40976,15489.361,-357.905,-422.1619,-27143.539,0.00025,0.00061,22.36064,-0.12656,,0.0,-0.00145,-0.00451,22.87484,27.4824,,,,,,,,,,,,
3.0,4.0,21.01627,15489.416,-357.907,-422.16,-27143.539,0.00022,0.00047,20.96705,-0.27398,,0.0,-0.00145,-0.00451,22.87482,26.08891,,,,,,,,,,,,
3.0,4.0,19.62307,15489.471,-357.906,-422.161,-27143.5,9e-05,0.00042,19.57375,-0.42325,,0.0,-0.00148,-0.00453,22.87468,24.69571,,,,,,,,,,,,
3.0,4.0,18.22915,15489.526,-357.907,-422.161,-27143.54,-0.0004,0.0001,18.17974,-0.57436,,0.0,-0.00147,-0.00452,22.87488,23.30179,,,,,,,,,,,,
3.0,4.0,16.83876,15489.581,-357.906,-422.1619,-27143.539,0.00016,0.00035,16.78925,-0.71636,,0.0,-0.00149,-0.00454,22.87485,21.9114,,,,,,,,,,,,
3.0,4.0,15.44844,15489.636,-357.907,-422.162,-27143.538,-3e-05,4e-05,15.39883,-0.87264,,0.0,-0.00149,-0.00456,22.87488,20.52108,,,,,,,,,,,,
3.0,4.0,14.0572,15489.691,-357.907,-422.161,-27143.5,-5e-05,-4e-05,14.00749,-1.02749,,0.0,-0.00145,-0.00452,22.87497,19.12984,,,,,,,,,,,,
3.0,4.0,12.66921,15489.746,-357.906,-422.161,-27143.5,-0.00013,0.00018,12.61941,-1.1669,,0.0,-0.00146,-0.00456,22.87479,17.74184,,,,,,,,,,,,
3.0,4.0,11.28115,15489.801,-357.906,-422.161,-27143.5,-3e-05,0.0001,11.23126,-1.30448,,0.0,-0.00148,-0.00454,22.87496,16.35379,,,,,,,,,,,,
3.0,4.0,9.89248,15489.856,-357.906,-422.161,-27143.5,-0.00012,1e-05,9.84249,-1.46248,,0.0,-0.00158,-0.0045,22.87489,14.96512,,,,,,,,,,,,
3.0,4.0,8.50737,15489.911,-357.9051,-422.161,-27143.539,0.00013,0.00072,8.4573,-1.59245,,0.0,-0.00154,-0.00454,22.8749,13.58001,,,,,,,,,,,,
3.0,4.0,7.12273,15489.966,-357.907,-422.161,-27143.538,-3e-05,-0.00023,7.07257,-1.73947,,0.0,-0.0015,-0.00454,22.87491,12.19537,,,,,,,,,,,,
3.0,4.0,5.73708,15490.021,-357.906,-422.162,-27143.5,0.0003,0.00016,5.68682,-1.88662,,0.0,-0.00149,-0.00456,22.87483,10.80972,,,,,,,,,,,,
3.0,4.0,4.35557,15490.076,-357.907,-422.162,-27143.538,0.00035,0.00042,4.30522,-2.02906,,0.0,-0.00155,-0.00455,22.87479,9.42821,,,,,,,,,,,,
3.0,4.0,2.97443,15490.131,-357.907,-422.1619,-27143.5,1e-05,0.00029,2.92398,-2.17855,,0.0,-0.00154,-0.00454,22.87498,8.04707,,,,,,,,,,,,
3.0,4.0,1.59448,15490.186,-357.906,-422.162,-27143.538,0.00032,-0.00031,1.54394,-2.31903,,0.0,-0.00149,-0.00451,22.87482,6.66712,,,,,,,,,,,,
3.0,4.0,0.42102,15490.241,-357.906,-422.1611,-27143.539,-8e-05,0.0002,0.37041,-2.42544,,0.0,-0.00151,-0.00451,22.87492,5.49365,,,,,,,,,,,,
3.0,4.0,0.20907,15490.261,-357.907,-422.162,-27143.539,-0.00018,0.00054,0.15845,-2.45481,,0.0,-0.0015,-0.00453,22.87484,5.28171,,,,,,,,,,,,