File: dataset_example/processed_data/ForceRelax_example/data/data_1_Measurements/GMM Fitting Results/data_1_2_GMM Fit.csv
Index [#],Phase [#],Displacement [um],Time [s],Pos X [um],Pos Y [um],Pos Z [um],Piezo X [um],Piezo Y [um],Piezo Z [um],Force A [uN],Force B [uN],Gripper [V],Voltage A [V],Voltage B [V],Temperature [oC],Sample Displacement [um],Filtered time [uN},Filtered force [uN],SG Force [uN],Est Force 2nd derivative,Filtered displacement [um],Sel Time [s],Sel Force [N],Sel Modulus Uncorrected [Pa],Sel Modulus Corrected [Pa],Sel Modulus GMM Fit [Pa],Sel Time Normalised [s m-2],Sel Force Normalised []
1.0,2.0,0.01398,15432.796,-857.904,-922.163,-27139.353,0.00013,-0.00044,-0.01253,-0.13725,,0.0,-0.00151,-0.00456,22.86838,-23.41422,15432.796,-0.13725,-0.138295,0.000370534,-0.01253,0.0,0.000287811,134001,134001,135382,0.0,1.0
1.0,2.0,0.51912,15432.851,-857.904,-922.163,-27139.4,-0.00024,0.00084,0.49263,-0.11046,,0.0,-0.00147,-0.00455,22.86859,-22.90909,15432.851,-0.11046,-0.0956711,0.000370534,0.49263,0.055,0.000275347,128197,128197,127844,6490425159448633.0,0.81322
1.0,2.0,1.48194,15432.906,-857.905,-922.163,-27139.354,1e-05,-0.00039,1.45551,-0.00919,,0.0,-0.00146,-0.00457,22.86851,-21.94627,15432.906,-0.00919,-0.00607458,6.10058e-05,1.45551,0.11,0.000263875,122856,122856,122931,1.29809e+16,0.641314
1.0,2.0,2.70002,15432.961,-857.904,-922.163,-27139.4,0.0001,-6e-05,2.67367,0.10757,,0.0,-0.00148,-0.00455,22.86875,-20.72818,15432.961,0.10757,0.0980907,-6.41975e-05,2.67367,0.165,0.000256883,119601,119601,119691,1.94713e+16,0.536536
1.0,2.0,4.07192,15433.016,-857.905,-922.163,-27139.355,-0.00046,-0.00042,4.04563,0.18826,,0.0,-0.00149,-0.00455,22.8684,-19.35628,15433.016,0.18826,0.196537,-0.000118502,4.04563,0.22,0.000251843,117254,117254,117517,2.59617e+16,0.461007
1.0,2.0,5.49162,15433.071,-857.904,-922.162,-27139.4,-6e-05,-0.00081,5.46538,0.28038,,0.0,-0.00145,-0.00456,22.86862,-17.93659,15433.071,0.28038,0.283874,0.000166315,5.46538,0.275,0.000249053,115955,115955,116025,3.24521e+16,0.419195
1.0,2.0,6.92053,15433.126,-857.905,-922.163,-27139.356,-8e-05,-0.00043,6.89437,0.40036,,0.0,-0.00149,-0.00457,22.86849,-16.50767,15433.126,0.40036,0.395245,3.33051e-05,6.89437,0.33,0.00024736,115167,115167,114972,3.89426e+16,0.393832
1.0,2.0,8.34828,15433.181,-857.905,-922.163,-27139.4,-0.00024,0.00036,8.32219,0.51528,,0.0,-0.00153,-0.00456,22.86849,-15.07993,15433.181,0.51528,0.515789,-0.000206493,8.32219,0.385,0.000245146,114136,114136,114203,4.5433e+16,0.360658
1.0,2.0,9.76661,15433.236,-857.905,-922.162,-27139.4,0.00037,-9e-05,9.74059,0.62756,,0.0,-0.00149,-0.00453,22.86867,-13.6616,15433.236,0.62756,0.594585,-0.0018025,9.74059,0.44,0.000244084,113642,113642,113619,5.19234e+16,0.344736
1.0,2.0,11.17878,15433.291,-857.9041,-922.163,-27139.356,0.00012,-0.00063,11.15264,0.43889,,0.0,-0.00146,-0.00457,22.86854,-12.24943,15433.291,0.43889,0.472925,0.00138445,11.15264,0.495,0.0002435398,113388,113388,113157,5.84138e+16,0.336586
1.0,2.0,12.58774,15433.346,-857.904,-922.163,-27139.356,-0.0001,0.00062,12.56164,0.5022,,0.0,-0.00148,-0.00456,22.86861,-10.84047,15433.346,0.5022,0.493028,0.000382158,12.56164,0.55,0.0002421,112718,112718,112778,6.49043e+16,0.31501
1.0,2.0,13.98886,15433.401,-857.904,-922.163,-27139.357,-0.00025,-0.00085,13.96281,0.5654,,0.0,-0.00149,-0.00452,22.86851,-9.43934,15433.401,0.5654,0.57349,1.20784e-05,13.96281,0.605,0.000241575,112474,112474,112454,7.13947e+16,0.30714
1.0,2.0,15.38736,15433.456,-857.905,-922.162,-27139.4,-1e-05,0.00022,15.36136,0.64512,,0.0,-0.0015,-0.00455,22.86857,-8.04084,15433.456,0.64512,0.649779,-8.31604e-05,15.36136,0.66,0.00024115,112276,112276,112171,7.78851e+16,0.300775
1.0,2.0,16.78437,15433.511,-857.906,-922.163,-27139.4,-0.00026,-0.00069,16.75842,0.72319,,0.0,-0.00148,-0.00449,22.86859,-6.64383,15433.511,0.72319,0.716851,0.000154637,16.75842,0.715,0.00023999,111736,111736,111917,8.43755e+16,0.283397
1.0,2.0,18.17651,15433.566,-857.904,-922.162,-27139.4,-0.00024,9e-05,18.15061,0.80046,,0.0,-0.00149,-0.00454,22.86861,-5.25169,15433.566,0.80046,0.810763,-0.000988688,18.15061,0.77,0.0002399844,111733,111733,111684,9.0866e+16,0.283308
1.0,2.0,19.56595,15433.621,-857.9059,-922.161,-27139.358,-0.00031,-5e-05,19.54002,0.75056,,0.0,-0.00149,-0.0045,22.86864,-3.86225,15433.621,0.75056,0.800986,-0.000552625,19.54002,0.825,0.000239589,111549,111549,111469,9.73564e+16,0.277384
1.0,2.0,20.95602,15433.676,-857.904,-922.163,-27139.4,0.00025,-6e-05,20.93007,0.72528,,0.0,-0.0015,-0.00454,22.86865,-2.47219,15433.676,0.72528,0.740592,0.000661953,20.93007,0.88,0.000238735,111151,111151,111269,1.03847e+17,0.264579
1.0,2.0,22.34156,15433.731,-857.905,-922.162,-27139.358,-0.00023,-0.00023,22.31564,0.76989,,0.0,-0.00148,-0.0045,22.86869,-1.08664,15433.731,0.76989,0.780152,5.92527e-05,22.31564,0.935,0.000238613,111095,111095,111080,1.10337e+17,0.262761
1.0,2.0,23.72708,15433.786,-857.904,-922.162,-27139.359,-0.00028,0.0004,23.7012,0.84073,,0.0,-0.00151,-0.00451,22.86861,0.29887,15433.786,0.84073,0.840805,-1.20419e-05,23.7012,0.99,0.000238295,110946,110946,110901,1.16828e+17,0.257985
1.0,2.0,25.11233,15433.841,-857.904,-922.163,-27139.4,0.0003,-0.0001,25.0865,0.90959,,0.0,-0.0015,-0.00451,22.86867,1.68413,15433.841,0.90959,0.865177,0.00331168,25.0865,1.045,0.00023742,110539,110539,110732,1.23318e+17,0.244884
1.0,2.0,26.49364,15433.896,-857.905,-922.162,-27139.4,5e-05,4e-05,26.468,1.21019,,0.0,-0.00148,-0.00452,22.86859,3.06543,15433.896,1.21019,1.38146,0.058233,26.468,1.1,0.000237673,110657,110657,110571,1.29809e+17,0.248676
1.0,2.0,27.87105,15433.951,-857.905,-922.163,-27139.4,-0.00071,-0.00016,27.8504,8.9599,,0.0,-0.00152,-0.0045,22.86878,4.44285,15433.951,8.9599,8.87371,0.0501268,27.8504,1.155,0.000237262,110465,110465,110418,1.36299e+17,0.242511
1.0,2.0,29.24881,15434.006,-857.904,-922.163,-27139.359,0.00027,-0.00056,29.23698,22.66499,,0.0,-0.00156,-0.0045,22.86871,5.82061,15434.006,22.66499,22.6944,0.0147006,29.23698,1.21,0.000236439,110082,110082,110271,1.42789e+17,0.230179
1.0,2.0,30.62685,15434.061,-857.903,-922.162,-27139.359,0.00017,-0.00032,30.62498,38.14453,,0.0,-0.00152,-0.0045,22.86881,7.19865,15434.061,38.14453,38.1309,0.00403935,30.62498,1.265,0.000236633,110173,110173,110131,1.4928e+17,0.23308
1.0,2.0,32.004,15434.116,-857.904,-922.163,-27139.36,0.00023,-5e-05,32.01238,54.07785,,0.0,-0.00163,-0.00448,22.86859,8.5758,15434.116,54.07785,54.0951,0.00993148,32.01238,1.32,0.000236379,110055,110055,109997,1.5577e+17,0.229288
1.0,2.0,33.38195,15434.171,-857.905,-922.162,-27139.36,-0.00036,0.00021,33.40148,71.39809,,0.0,-0.00158,-0.0045,22.86888,9.95375,15434.171,71.39809,71.3119,0.00642795,33.40148,1.375,0.000235701,109739,109739,109869,1.62261e+17,0.219114
1.0,2.0,34.75758,15434.226,-857.906,-922.163,-27139.36,0.00024,-0.00015,34.78856,89.1906,,0.0,-0.00153,-0.0045,22.86857,11.32938,15434.226,89.1906,89.2547,-0.00233253,34.78856,1.43,0.000235761,109767,109767,109746,1.68751e+17,0.22002
1.0,2.0,36.13393,15434.281,-857.905,-922.163,-27139.36,1e-05,-2e-05,36.1763,106.885,,0.0,-0.00149,-0.00448,22.86878,12.70573,15434.281,106.885,106.962,0.00288607,36.1763,1.485,0.000235605,109694,109694,109628,1.75241e+17,0.217677
1.0,2.0,37.50991,15434.336,-857.905,-922.163,-27139.4,0.00025,0.00025,37.56402,125.135,,0.0,-0.00148,-0.00451,22.86865,14.0817,15434.336,125.135,124.994,0.00549775,37.56402,1.54,0.000235037,109430,109430,109515,1.81732e+17,0.20917
1.0,2.0,38.88426,15434.391,-857.904,-922.162,-27139.4,-0.00031,-1e-05,38.95032,143.706,,0.0,-0.00148,-0.00448,22.86877,15.45605,15434.391,143.706,143.692,0.00269334,38.95032,1.595,0.000234932,109381,109381,109406,1.88222e+17,0.207595
1.0,2.0,40.25776,15434.446,-857.905,-922.163,-27139.4,0.00023,-0.00042,40.33593,162.538,,0.0,-0.00147,-0.0045,22.86868,16.82955,15434.446,162.538,162.702,0.00240146,40.33593,1.65,0.000235006,109415,109415,109301,1.94713e+17,0.208709
1.0,2.0,41.63181,15434.501,-857.905,-922.163,-27139.4,-0.0001,-0.00049,41.72265,182.222,,0.0,-0.00149,-0.00447,22.86862,18.2036,15434.501,182.222,182.017,0.00310916,41.72265,1.705,0.000234438,109151,109151,109200,2.01203e+17,0.2002
1.0,2.0,43.00472,15434.556,-857.905,-922.162,-27139.4,0.00025,-0.00045,43.10815,201.777,,0.0,-0.0015,-0.00448,22.86855,19.57652,15434.556,201.777,201.705,0.00185471,43.10815,1.76,0.000234191,109036,109036,109102,2.07694e+17,0.196489
1.0,2.0,44.37561,15434.611,-857.905,-922.162,-27139.361,-0.00044,-0.00052,44.49168,221.419,,0.0,-0.00145,-0.00445,22.86864,20.94741,15434.611,221.419,221.601,0.00145154,44.49168,1.815,0.00023435,109110,109110,109008,2.14184e+17,0.198869
1.0,2.0,45.74715,15434.666,-857.904,-922.163,-27139.4,0.00043,0.00044,45.87638,241.861,,0.0,-0.00149,-0.0045,22.86869,22.31895,15434.666,241.861,241.702,0.00249198,45.87638,1.87,0.000233927,108913,108913,108918,2.20674e+17,0.192537
1.0,2.0,47.11685,15434.721,-857.904,-922.163,-27139.4,1e-05,-0.00035,47.25909,262.095,,0.0,-0.00147,-0.0045,22.86876,23.68864,15434.721,262.095,262.075,0.00451343,47.25909,1.925,0.000233581,108752,108752,108830,2.27165e+17,0.187359
1.0,2.0,48.48424,15434.776,-857.904,-922.163,-27139.4,0.00011,0.00016,48.63981,282.7872,,0.0,-0.00145,-0.00449,22.8689,25.05604,15434.776,282.7872,282.812,0.00229596,48.63981,1.98,0.00023384,108873,108873,108745,2.33655e+17,0.191239
1.0,3.0,49.54349,15434.831,-857.904,-922.163,-27139.361,-7e-05,0.00046,49.70009,284.396,,0.0,-0.00158,-0.00448,22.86864,26.11529,,,,,,2.035,0.000233431,108682,108682,108663,2.40146e+17,0.185098
1.0,3.0,49.93879,15434.886,-857.903,-922.163,-27139.4,-8e-05,-1e-05,50.08651,270.611,,0.0,-0.00155,-0.00451,22.86885,26.51058,,,,,,2.09,0.0002329813,108473,108473,108584,2.46636e+17,0.178366
1.0,3.0,50.06364,15434.941,-857.904,-922.162,-27139.4,8e-05,-0.00033,50.20541,261.352,,0.0,-0.00158,-0.0045,22.8688,26.63544,,,,,,2.145,0.000233361,108649,108649,108507,2.53127e+17,0.184058
1.0,3.0,50.0933,15434.996,-857.905,-922.163,-27139.4,0.0,0.00075,50.23182,256.303,,0.0,-0.00157,-0.00454,22.86868,26.6651,,,,,,2.2,0.000232908,108438,108438,108432,2.59617e+17,0.177261
1.0,3.0,50.0897,15435.051,-857.904,-922.164,-27139.4,0.00017,-0.00039,50.22573,252.443,,0.0,-0.00156,-0.00451,22.86869,26.6615,,,,,,2.255,0.000232456,108228,108228,108360,2.66107e+17,0.170498
1.0,3.0,50.07746,15435.106,-857.904,-922.163,-27139.362,-6e-05,-0.00018,50.21173,249.6951,,0.0,-0.00152,-0.00449,22.86889,26.64926,,,,,,2.31,0.000232922,108445,108445,108289,2.72598e+17,0.17747
1.0,3.0,50.06646,15435.161,-857.904,-922.163,-27139.4,-0.00014,-0.00012,50.19994,248.484,,0.0,-0.00154,-0.00451,22.86878,26.63825,,,,,,2.365,0.0002324288,108215,108215,108221,2.79088e+17,0.170087
1.0,3.0,50.05597,15435.216,-857.905,-922.162,-27139.4,-0.00028,-8e-05,50.1884,246.8466,,0.0,-0.00155,-0.00453,22.86882,26.62776,,,,,,2.42,0.000232064,108046,108046,108154,2.85579e+17,0.164627
1.0,3.0,50.04715,15435.271,-857.905,-922.163,-27139.4,0.00024,-0.00037,50.17866,245.4121,,0.0,-0.00153,-0.0045,22.86885,26.61895,,,,,,2.475,0.000232472,108236,108236,108089,2.92069e+17,0.17074
1.0,3.0,50.04232,15435.326,-857.905,-922.163,-27139.362,6e-05,0.00024,50.17359,245.048,,0.0,-0.00154,-0.00452,22.86886,26.61411,,,,,,2.53,0.000231952,107993,107993,108026,2.9856e+17,0.162938
1.0,3.0,50.03758,15435.381,-857.905,-922.163,-27139.362,0.00021,-0.00029,50.16822,244.0639,,0.0,-0.00149,-0.00448,22.86872,26.60937,,,,,,2.585,0.000231631,107844,107844,107965,3.0505e+17,0.158124
1.0,3.0,50.03347,15435.436,-857.904,-922.163,-27139.361,4e-05,-0.00011,50.16354,243.171,,0.0,-0.00149,-0.0045,22.8687,26.60527,,,,,,2.64,0.00023207,108048,108048,107905,3.1154e+17,0.164703
1.0,3.0,50.0316,15435.491,-857.905,-922.163,-27139.361,0.00051,0.00048,50.16161,243.069,,0.0,-0.00149,-0.00447,22.86888,26.6034,,,,,,2.695,0.000231583,107822,107822,107846,3.18031e+17,0.157417
1.0,3.0,50.02927,15435.546,-857.904,-922.162,-27139.4,2e-05,0.0003,50.15871,242.199,,0.0,-0.00154,-0.0045,22.86899,26.60107,,,,,,2.75,0.000231235,107660,107660,107789,3.24521e+17,0.152203
1.0,3.0,50.02675,15435.601,-857.903,-922.163,-27139.4,0.00033,-0.00051,50.15569,241.419,,0.0,-0.00145,-0.00447,22.86885,26.59854,,,,,,2.805,0.00023175,107899,107899,107733,3.31012e+17,0.15991
1.0,3.0,50.02625,15435.656,-857.905,-922.162,-27139.4,0.00033,-5e-05,50.15525,241.511,,0.0,-0.00149,-0.00452,22.86888,26.59804,,,,,,2.86,0.000231154,107622,107622,107678,3.37502e+17,0.150978
1.0,3.0,50.02471,15435.711,-857.906,-922.163,-27139.4,-0.00012,0.00025,50.15322,240.752,,0.0,-0.00151,-0.00451,22.86887,26.59651,,,,,,2.915,0.000231008,107554,107554,107624,3.43993e+17,0.148798
1.0,3.0,50.02341,15435.766,-857.904,-922.162,-27139.363,-0.00011,0.00054,50.15166,240.349,,0.0,-0.00146,-0.00449,22.86887,26.5952,,,,,,2.97,0.000231404,107738,107738,107572,3.50483e+17,0.154726
1.0,3.0,50.02358,15435.821,-857.904,-922.162,-27139.4,-0.00042,0.00042,50.15189,240.431,,0.0,-0.00148,-0.00456,22.86896,26.59538,,,,,,3.025,0.000230738,107428,107428,107521,3.56973e+17,0.144756
1.0,3.0,50.02197,15435.876,-857.903,-922.162,-27139.4,-0.00031,0.00014,50.14969,239.522,,0.0,-0.00146,-0.00453,22.86889,26.59377,,,,,,3.08,0.000230783,107449,107449,107470,3.63464e+17,0.14542
1.0,3.0,50.02094,15435.931,-857.905,-922.163,-27139.4,-2e-05,6e-05,50.1484,239.122,,0.0,-0.00145,-0.00449,22.86899,26.59274,,,,,,3.135,0.000230986,107544,107544,107421,3.69954e+17,0.148468
1.0,3.0,50.02157,15435.986,-857.905,-922.163,-27139.362,0.00037,-0.00043,50.1492,239.393,,0.0,-0.00147,-0.00455,22.8688,26.59336,,,,,,3.19,0.000230433,107286,107286,107372,3.76445e+17,0.140187
1.0,3.0,50.02053,15436.041,-857.904,-922.163,-27139.4,-0.00022,-0.00015,50.1477,238.668,,0.0,-0.00149,-0.00449,22.86882,26.59233,,,,,,3.245,0.000230416,107278,107278,107325,3.82935e+17,0.139932
1.0,3.0,50.01949,15436.096,-857.904,-922.163,-27139.364,-0.00069,-0.00012,50.14638,238.2293,,0.0,-0.00148,-0.00452,22.86868,26.59128,,,,,,3.3,0.0002306941,107408,107408,107278,3.89426e+17,0.144092
1.0,3.0,50.02003,15436.151,-857.905,-922.163,-27139.4,0.00021,0.00017,50.14707,238.466,,0.0,-0.00145,-0.00447,22.86901,26.59183,,,,,,3.355,0.00023026,107205,107205,107232,3.95916e+17,0.137585
1.0,3.0,50.0192,15436.206,-857.905,-922.163,-27139.364,0.00013,-0.00054,50.14591,237.952,,0.0,-0.00147,-0.00451,22.86886,26.59099,,,,,,3.41,0.0002300643,107114,107114,107187,4.02406e+17,0.134654
1.0,3.0,50.0182,15436.261,-857.904,-922.162,-27139.364,-0.00059,0.00024,50.14458,237.43,,0.0,-0.00147,-0.00447,22.86896,26.59,,,,,,3.465,0.0002303,107224,107224,107143,4.08897e+17,0.138193
1.0,3.0,50.01871,15436.316,-857.904,-922.163,-27139.363,0.00023,0.00024,50.14519,237.603,,0.0,-0.0015,-0.00442,22.8689,26.5905,,,,,,3.52,0.000229961,107067,107067,107099,4.15387e+17,0.133112
1.0,3.0,50.01835,15436.371,-857.904,-922.163,-27139.4,0.00049,0.00036,50.14461,237.253,,0.0,-0.00143,-0.00446,22.86888,26.59015,,,,,,3.575,0.000229745,106966,106966,107057,4.21878e+17,0.129863
1.0,3.0,50.01717,15436.426,-857.904,-922.163,-27139.4,-0.00019,-5e-05,50.14305,236.667,,0.0,-0.00149,-0.00451,22.86873,26.58897,,,,,,3.63,0.000230036,107101,107101,107014,4.28368e+17,0.134237
1.0,3.0,50.01761,15436.481,-857.905,-922.163,-27139.4,-0.0003,8e-05,50.14365,236.9208,,0.0,-0.00148,-0.00448,22.86913,26.5894,,,,,,3.685,0.0002296672,106930,106930,106973,4.34858e+17,0.128704
1.0,3.0,50.01755,15436.536,-857.905,-922.162,-27139.365,0.00019,-0.00079,50.14343,236.659,,0.0,-0.00151,-0.00448,22.86882,26.58935,,,,,,3.74,0.000229513,106858,106858,106932,4.41349e+17,0.126396
1.0,3.0,50.01667,15436.591,-857.904,-922.162,-27139.4,-0.00048,-0.00027,50.14218,236.093,,0.0,-0.00149,-0.00452,22.86889,26.58846,,,,,,3.795,0.000229742,106964,106964,106892,4.47839e+17,0.129825
1.0,3.0,50.01702,15436.646,-857.904,-922.162,-27139.4,-8e-05,-0.00022,50.14266,236.284,,0.0,-0.00144,-0.00445,22.86892,26.58881,,,,,,3.85,0.000229353,106783,106783,106852,4.5433e+17,0.123995
1.0,3.0,50.01712,15436.701,-857.905,-922.162,-27139.366,-0.00011,0.00039,50.1427,236.1954,,0.0,-0.00147,-0.00448,22.86888,26.58891,,,,,,3.905,0.000229248,106734,106734,106813,4.6082e+17,0.122416
1.0,3.0,50.01623,15436.756,-857.905,-922.162,-27139.4,-5e-05,-0.00012,50.14139,235.542,,0.0,-0.00147,-0.00453,22.86903,26.58802,,,,,,3.96,0.000229576,106887,106887,106774,4.67311e+17,0.127341
1.0,3.0,50.01617,15436.811,-857.905,-922.163,-27139.366,-0.00021,0.00063,50.14137,235.619,,0.0,-0.00145,-0.00447,22.86912,26.58796,,,,,,4.015,0.000229143,106686,106686,106736,4.73801e+17,0.120855
1.0,3.0,50.01666,15436.866,-857.904,-922.162,-27139.366,-0.0003,3e-05,50.14191,235.672,,0.0,-0.00148,-0.00454,22.8691,26.58846,,,,,,4.07,0.000228976,106608,106608,106699,4.80291e+17,0.118339
1.0,3.0,50.01569,15436.921,-857.904,-922.163,-27139.365,0.0001,-0.00061,50.14049,234.985,,0.0,-0.0015,-0.00447,22.86899,26.58748,,,,,,4.125,0.000229326,106771,106771,106662,4.86782e+17,0.123597
1.0,3.0,50.01564,15436.976,-857.904,-922.163,-27139.4,1e-05,0.00016,50.14049,235.053,,0.0,-0.00151,-0.0045,22.869,26.58744,,,,,,4.18,0.000228902,106573,106573,106625,4.93272e+17,0.117237
1.0,3.0,50.0162,15437.031,-857.904,-922.163,-27139.4,2e-05,0.00041,50.14117,235.242,,0.0,-0.00148,-0.00451,22.86872,26.588,,,,,,4.235,0.000228699,106479,106479,106589,4.99763e+17,0.114194
1.0,3.0,50.01505,15437.086,-857.904,-922.163,-27139.4,0.00019,-0.00031,50.13953,234.49,,0.0,-0.00141,-0.0045,22.86905,26.58685,,,,,,4.29,0.000229137,106683,106683,106553,5.06253e+17,0.120756
1.0,3.0,50.01523,15437.141,-857.905,-922.163,-27139.365,1e-05,0.00021,50.1398,234.636,,0.0,-0.00151,-0.00452,22.86887,26.58702,,,,,,4.345,0.000228662,106461,106461,106518,5.12744e+17,0.113634
1.0,3.0,50.01619,15437.196,-857.906,-922.162,-27139.4,0.00018,0.00035,50.14092,234.871,,0.0,-0.00146,-0.00448,22.86906,26.58799,,,,,,4.4,0.00022846,106368,106368,106484,5.19234e+17,0.110618
1.0,3.0,50.01492,15437.251,-857.904,-922.1629,-27139.4,-0.00027,-0.0002,50.13912,234.064,,0.0,-0.00149,-0.0045,22.86908,26.58671,,,,,,4.455,0.000228885,106565,106565,106449,5.25724e+17,0.116977
1.0,3.0,50.01503,15437.306,-857.906,-922.162,-27139.4,0.00029,0.00025,50.13933,234.2046,,0.0,-0.00152,-0.00447,22.86888,26.58683,,,,,,4.51,0.000228425,106351,106351,106415,5.32215e+17,0.110084
1.0,3.0,50.01569,15437.361,-857.9039,-922.162,-27139.4,-0.00032,0.00017,50.14009,234.354,,0.0,-0.00144,-0.0045,22.86907,26.58749,,,,,,4.565,0.000228315,106300,106300,106382,5.38705e+17,0.108448
1.0,3.0,50.01449,15437.416,-857.906,-922.163,-27139.4,-0.0001,-0.00042,50.13843,233.65,,0.0,-0.00147,-0.00448,22.86881,26.58628,,,,,,4.62,0.000228743,106499,106499,106349,5.45196e+17,0.114854
1.0,3.0,50.01478,15437.471,-857.904,-922.163,-27139.365,0.00011,0.0002,50.13885,233.852,,0.0,-0.00148,-0.0045,22.86897,26.58658,,,,,,4.675,0.00022817,106232,106232,106316,5.51686e+17,0.106268
1.0,3.0,50.01541,15437.526,-857.906,-922.162,-27139.365,-3e-05,0.00024,50.13954,233.958,,0.0,-0.0015,-0.00446,22.86905,26.5872,,,,,,4.73,0.000228069,106185,106185,106284,5.58177e+17,0.104755
1.0,3.0,50.01392,15437.581,-857.904,-922.163,-27139.4,0.0002,7e-05,50.13757,233.201,,0.0,-0.00151,-0.00448,22.86908,26.58571,,,,,,4.785,0.000228504,106388,106388,106252,5.64667e+17,0.111273
1.0,3.0,50.01461,15437.636,-857.905,-922.162,-27139.4,3e-05,-6e-05,50.13851,233.594,,0.0,-0.00151,-0.0045,22.86914,26.5864,,,,,,4.84,0.000228,106153,106153,106220,5.71157e+17,0.10372
1.0,3.0,50.01501,15437.691,-857.906,-922.162,-27139.4,-5e-05,0.00012,50.13888,233.5346,,0.0,-0.00149,-0.00451,22.86889,26.5868,,,,,,4.895,0.000227825,106072,106072,106189,5.77648e+17,0.101101
1.0,3.0,50.0138,15437.746,-857.905,-922.163,-27139.4,-3e-05,-4e-05,50.13723,232.852,,0.0,-0.00152,-0.00448,22.86899,26.5856,,,,,,4.95,0.000228345,106314,106314,106158,5.84138e+17,0.108896
1.0,3.0,50.01449,15437.801,-857.905,-922.163,-27139.365,-0.00011,-0.00017,50.13817,233.247,,0.0,-0.00148,-0.00447,22.86898,26.58629,,,,,,5.005,0.0002277845,106053,106053,106128,5.90629e+17,0.100491
1.0,3.0,50.01447,15437.856,-857.905,-922.162,-27139.366,0.00027,-0.00026,50.13802,233.044,,0.0,-0.00146,-0.0045,22.86919,26.58626,,,,,,5.06,0.000227668,105999,105999,106097,5.97119e+17,0.0987514
1.0,3.0,50.0135,15437.911,-857.905,-922.162,-27139.366,5e-05,-0.0001,50.13673,232.544,,0.0,-0.00153,-0.00451,22.8693,26.58529,,,,,,5.115,0.000228149,106223,106223,106067,6.0361e+17,0.105952
1.0,3.0,50.01431,15437.966,-857.904,-922.162,-27139.4,-0.00018,-0.00028,50.13779,232.939,,0.0,-0.0015,-0.00451,22.86909,26.5861,,,,,,5.17,0.000227583,105959,105959,106038,6.101e+17,0.0974691
1.0,3.0,50.01432,15438.021,-857.904,-922.163,-27139.4,0.00034,-0.00022,50.13769,232.766,,0.0,-0.00151,-0.00452,22.86905,26.58611,,,,,,5.225,0.000227445,105895,105895,106009,6.1659e+17,0.0954028
1.0,3.0,50.0134,15438.076,-857.904,-922.162,-27139.366,-1e-05,9e-05,50.13642,232.222,,0.0,-0.0015,-0.00451,22.8692,26.5852,,,,,,5.28,0.000227882,106098,106098,105980,6.23081e+17,0.101956
1.0,3.0,50.01395,15438.131,-857.905,-922.163,-27139.366,-0.00022,0.00027,50.13722,232.598,,0.0,-0.00151,-0.0045,22.86914,26.58575,,,,,,5.335,0.000227377,105863,105863,105951,6.29571e+17,0.0943795
1.0,3.0,50.01426,15438.186,-857.905,-922.162,-27139.365,0.00049,2e-05,50.1375,232.573,,0.0,-0.00145,-0.00453,22.86893,26.58605,,,,,,5.39,0.000227393,105871,105871,105923,6.36062e+17,0.0946234
1.0,3.0,50.01347,15438.241,-857.904,-922.163,-27139.4,-0.0003,0.00103,50.13638,232.051,,0.0,-0.00144,-0.00452,22.86885,26.58526,,,,,,5.445,0.000227718,106022,106022,105895,6.42552e+17,0.0994946
1.0,3.0,50.01377,15438.296,-857.904,-922.163,-27139.4,-8e-05,-2e-05,50.13679,232.219,,0.0,-0.00146,-0.00452,22.86901,26.58557,,,,,,5.5,0.000227291,105823,105823,105867,6.49043e+17,0.0930999
1.0,3.0,50.01417,15438.351,-857.905,-922.163,-27139.366,0.00033,-0.00023,50.13723,232.272,,0.0,-0.00153,-0.00453,22.86919,26.58597,,,,,,5.555,0.000227176,105769,105769,105839,6.55533e+17,0.0913658
1.0,3.0,50.0133,15438.406,-857.905,-922.162,-27139.4,0.00017,-0.00046,50.13604,231.772,,0.0,-0.00156,-0.0045,22.86903,26.5851,,,,,,5.61,0.000227524,105932,105932,105812,6.62023e+17,0.096586
1.0,3.0,50.01365,15438.461,-857.905,-922.162,-27139.366,7e-05,0.00036,50.1365,231.959,,0.0,-0.00149,-0.00449,22.86916,26.58545,,,,,,5.665,0.000227077,105724,105724,105785,6.68514e+17,0.0898901
1.0,3.0,50.01401,15438.516,-857.904,-922.163,-27139.4,0.00026,-1e-05,50.13684,231.9277,,0.0,-0.00147,-0.00449,22.86902,26.5858,,,,,,5.72,0.000227048,105710,105710,105759,6.75004e+17,0.0894542
1.0,3.0,50.01311,15438.571,-857.905,-922.162,-27139.365,5e-05,0.00018,50.13565,231.484,,0.0,-0.00147,-0.00455,22.86921,26.5849,,,,,,5.775,0.000227334,105843,105843,105732,6.81495e+17,0.0937335
1.0,3.0,50.01367,15438.626,-857.904,-922.163,-27139.365,-0.00036,0.00019,50.1364,231.771,,0.0,-0.00146,-0.00454,22.8691,26.58546,,,,,,5.83,0.000226935,105658,105658,105706,6.87985e+17,0.0877679
1.0,3.0,50.01377,15438.681,-857.905,-922.163,-27139.4,-0.00024,-0.0,50.13645,231.685,,0.0,-0.00147,-0.00448,22.86936,26.58557,,,,,,5.885,0.000226819,105604,105604,105680,6.94475e+17,0.0860284
1.0,3.0,50.01299,15438.736,-857.905,-922.163,-27139.365,0.00031,-2e-05,50.13537,231.228,,0.0,-0.00147,-0.00452,22.86907,26.58479,,,,,,5.94,0.00022718,105771,105771,105655,7.00966e+17,0.0914264
1.0,3.0,50.01347,15438.791,-857.905,-922.163,-27139.4,3e-05,0.00024,50.13604,231.518,,0.0,-0.0015,-0.00451,22.86921,26.58526,,,,,,5.995,0.000226883,105633,105633,105629,7.07456e+17,0.0869819
1.0,3.0,50.01361,15438.846,-857.905,-922.161,-27139.364,-9e-05,0.00016,50.13613,231.449,,0.0,-0.00148,-0.00453,22.86924,26.5854,,,,,,6.05,0.000226578,105491,105491,105604,7.13947e+17,0.0824145
1.0,3.0,50.01281,15438.901,-857.9041,-922.162,-27139.365,0.00023,-0.00063,50.13503,230.9715,,0.0,-0.00147,-0.00451,22.86931,26.58461,,,,,,6.105,0.000226971,105674,105674,105579,7.20437e+17,0.0883071
1.0,3.0,50.01334,15438.956,-857.905,-922.162,-27139.365,-0.00017,-5e-05,50.13573,231.239,,0.0,-0.00147,-0.0045,22.86907,26.58514,,,,,,6.16,0.000226738,105566,105566,105555,7.26928e+17,0.0848086
1.0,3.0,50.01381,15439.011,-857.903,-922.162,-27139.364,-0.00021,0.00019,50.13622,231.279,,0.0,-0.0015,-0.00445,22.86912,26.5856,,,,,,6.215,0.000226367,105393,105393,105530,7.33418e+17,0.0792471
1.0,3.0,50.01264,15439.066,-857.904,-922.162,-27139.366,-6e-05,0.00041,50.1347,230.718,,0.0,-0.00148,-0.00446,22.8691,26.58444,,,,,,6.27,0.00022683,105609,105609,105506,7.39908e+17,0.0861894
1.0,3.0,50.01298,15439.121,-857.905,-922.163,-27139.365,9e-05,9e-05,50.13517,230.929,,0.0,-0.00148,-0.00447,22.86942,26.58477,,,,,,6.325,0.000226615,105509,105509,105482,7.46399e+17,0.0829718
1.0,3.0,50.01368,15439.176,-857.904,-922.163,-27139.4,-0.00014,0.00018,50.13594,231.032,,0.0,-0.00146,-0.00444,22.86929,26.58548,,,,,,6.38,0.000226226,105327,105327,105458,7.52889e+17,0.077138
1.0,3.0,50.01252,15439.231,-857.905,-922.163,-27139.365,0.00041,0.0001,50.1344,230.444,,0.0,-0.00148,-0.00448,22.86911,26.58432,,,,,,6.435,0.000226683,105540,105540,105435,7.5938e+17,0.0839888
1.0,3.0,50.01315,15439.286,-857.905,-922.163,-27139.363,-8e-05,-0.00018,50.13525,230.793,,0.0,-0.00151,-0.00448,22.86928,26.58494,,,,,,6.49,0.000226652,105526,105526,105412,7.6587e+17,0.083519
1.0,3.0,50.01324,15439.341,-857.905,-922.162,-27139.4,4e-05,0.0005,50.13532,230.758,,0.0,-0.00152,-0.00443,22.86943,26.58504,,,,,,6.545,0.0002260168,105230,105230,105389,7.72361e+17,0.0740021
1.0,3.0,50.01226,15439.396,-857.905,-922.163,-27139.363,-0.00026,-0.00036,50.13398,230.189,,0.0,-0.00146,-0.00451,22.86918,26.58406,,,,,,6.6,0.000226538,105473,105473,105366,7.78851e+17,0.0818086
1.0,3.0,50.01295,15439.451,-857.905,-922.162,-27139.4,0.00034,6e-05,50.13492,230.59,,0.0,-0.00148,-0.00448,22.86912,26.58475,,,,,,6.655,0.000226506,105458,105458,105343,7.85341e+17,0.0813393
1.0,3.0,50.01331,15439.506,-857.905,-922.162,-27139.4,-0.00013,-0.00034,50.13525,230.532,,0.0,-0.00147,-0.00453,22.86927,26.58511,,,,,,6.71,0.000225839,105147,105147,105321,7.91832e+17,0.0713427
1.0,3.0,50.01231,15439.561,-857.904,-922.1628,-27139.4,9e-05,-0.00023,50.13389,229.979,,0.0,-0.00145,-0.0045,22.86918,26.5841,,,,,,6.765,0.000226334,105378,105378,105299,7.98322e+17,0.0787548
1.0,3.0,50.01289,15439.616,-857.904,-922.162,-27139.4,-0.0002,-1e-05,50.13469,230.33,,0.0,-0.00149,-0.00449,22.8693,26.58468,,,,,,6.82,0.000226334,105378,105378,105277,8.04813e+17,0.0787573
1.0,3.0,50.01312,15439.671,-857.904,-922.163,-27139.4,0.00012,-9e-05,50.13494,230.366,,0.0,-0.00146,-0.0045,22.86919,26.58491,,,,,,6.875,0.00022571,105087,105087,105255,8.11303e+17,0.0694005
1.0,3.0,50.01219,15439.726,-857.903,-922.162,-27139.4,-0.00031,7e-05,50.13362,229.746,,0.0,-0.00147,-0.00454,22.86919,26.58398,,,,,,6.93,0.000226229,105329,105329,105234,8.17794e+17,0.0771772
1.0,3.0,50.01291,15439.781,-857.904,-922.162,-27139.4,0.00044,9e-05,50.13463,230.199,,0.0,-0.00145,-0.0045,22.86931,26.58471,,,,,,6.985,0.000226156,105295,105295,105212,8.24284e+17,0.0760892
1.0,3.0,50.01328,15439.836,-857.905,-922.162,-27139.4,0.00019,9e-05,50.13501,230.21,,0.0,-0.00152,-0.00453,22.8691,26.58508,,,,,,7.04,0.000225651,105059,105059,105191,8.30774e+17,0.0685152
1.0,3.0,50.01207,15439.891,-857.9039,-922.163,-27139.4,-0.00017,0.00018,50.13341,229.602,,0.0,-0.00148,-0.00448,22.86906,26.58387,,,,,,7.095,0.000226115,105276,105276,105170,8.37265e+17,0.0754725
1.0,3.0,50.01284,15439.946,-857.905,-922.163,-27139.4,0.00013,0.00024,50.1344,229.9534,,0.0,-0.00144,-0.0045,22.86927,26.58464,,,,,,7.15,0.000226024,105233,105233,105150,8.43755e+17,0.0741076
1.0,3.0,50.01316,15440.001,-857.906,-922.162,-27139.365,0.00016,0.00013,50.13475,229.998,,0.0,-0.00148,-0.00447,22.86911,26.58495,,,,,,7.205,0.000225619,105045,105045,105129,8.50246e+17,0.0680457
1.0,3.0,50.01218,15440.056,-857.904,-922.162,-27139.4,-1e-05,0.00015,50.13343,229.467,,0.0,-0.00151,-0.00448,22.86905,26.58397,,,,,,7.26,0.000226019,105231,105231,105109,8.56736e+17,0.0740409
1.0,3.0,50.01291,15440.111,-857.906,-922.164,-27139.365,-6e-05,0.00038,50.1344,229.8395,,0.0,-0.00151,-0.00445,22.86934,26.5847,,,,,,7.315,0.000225769,105115,105115,105089,8.63227e+17,0.0702921
1.0,3.0,50.01301,15440.166,-857.904,-922.163,-27139.4,-3e-05,-0.00014,50.13447,229.788,,0.0,-0.00147,-0.0045,22.86924,26.5848,,,,,,7.37,0.000225411,104948,104948,105069,8.69717e+17,0.0649195
1.0,3.0,50.01212,15440.221,-857.905,-922.162,-27139.4,-0.00018,-0.00036,50.13325,229.274,,0.0,-0.00148,-0.00449,22.86936,26.58392,,,,,,7.425,0.000225846,105150,105150,105049,8.76207e+17,0.0714416
1.0,3.0,50.01268,15440.276,-857.905,-922.162,-27139.4,-2e-05,0.0002,50.13402,229.6,,0.0,-0.00154,-0.0045,22.86912,26.58448,,,,,,7.48,0.000225734,105099,105099,105029,8.82698e+17,0.0697715
1.0,3.0,50.01281,15440.331,-857.905,-922.1629,-27139.4,-0.00011,-0.00012,50.1341,229.521,,0.0,-0.00152,-0.00449,22.86913,26.58461,,,,,,7.535,0.000225259,104877,104877,105010,8.89188e+17,0.0626414
1.0,3.0,50.01217,15440.386,-857.904,-922.163,-27139.4,9e-05,2e-05,50.13321,229.142,,0.0,-0.00143,-0.0045,22.86934,26.58396,,,,,,7.59,0.000225671,105069,105069,104991,8.95679e+17,0.0688152
1.0,3.0,50.01249,15440.441,-857.904,-922.164,-27139.4,-6e-05,0.00057,50.13371,229.422,,0.0,-0.00147,-0.00452,22.86931,26.58428,,,,,,7.645,0.000225636,105053,105053,104972,9.02169e+17,0.0682914
1.0,3.0,50.01274,15440.496,-857.905,-922.162,-27139.4,-1e-05,-0.00037,50.13394,229.391,,0.0,-0.00149,-0.00447,22.86937,26.58453,,,,,,7.7,0.000225204,104851,104851,104953,9.0866e+17,0.0618164
1.0,3.0,50.01188,15440.551,-857.903,-922.163,-27139.365,0.00016,-0.00043,50.13278,228.911,,0.0,-0.00146,-0.00449,22.86927,26.58368,,,,,,7.755,0.000225498,104988,104988,104934,9.1515e+17,0.0662274
1.0,3.0,50.01255,15440.606,-857.905,-922.163,-27139.365,-0.00023,8e-05,50.13366,229.248,,0.0,-0.00147,-0.00452,22.86919,26.58435,,,,,,7.81,0.000225511,104994,104994,104916,9.2164e+17,0.0664178
1.0,3.0,50.01266,15440.661,-857.904,-922.162,-27139.364,4e-05,-0.00021,50.13377,229.241,,0.0,-0.00149,-0.00448,22.86939,26.58446,,,,,,7.865,0.000225033,104772,104772,104897,9.28131e+17,0.0592542
1.0,3.0,50.01206,15440.716,-857.905,-922.163,-27139.4,7e-05,9e-05,50.13289,228.819,,0.0,-0.0015,-0.00454,22.86951,26.58385,,,,,,7.92,0.000225357,104923,104923,104879,9.34621e+17,0.0641103
1.0,3.0,50.01225,15440.771,-857.904,-922.163,-27139.365,-0.00018,0.00034,50.1332,229.009,,0.0,-0.00145,-0.00448,22.86938,26.58404,,,,,,7.975,0.000225406,104946,104946,104861,9.41112e+17,0.0648474
1.0,3.0,50.01273,15440.826,-857.903,-922.163,-27139.365,9e-05,0.0005,50.13379,229.166,,0.0,-0.00145,-0.00452,22.86926,26.58453,,,,,,8.03,0.000224931,104724,104724,104843,9.47602e+17,0.0577314
1.0,3.0,50.01204,15440.881,-857.905,-922.162,-27139.364,0.00022,-0.00013,50.13277,228.66,,0.0,-0.00146,-0.00453,22.8694,26.58384,,,,,,8.085,0.000225296,104894,104894,104826,9.54092e+17,0.0631969
1.0,3.0,50.01209,15440.936,-857.905,-922.161,-27139.4,0.00016,6e-05,50.13292,228.824,,0.0,-0.00157,-0.00454,22.86951,26.58388,,,,,,8.14,0.000225287,104890,104890,104808,9.60583e+17,0.0630634
1.0,3.0,50.01277,15440.991,-857.904,-922.163,-27139.4,-0.00011,-8e-05,50.13373,229.026,,0.0,-0.00145,-0.00453,22.8693,26.58456,,,,,,8.195,0.000224778,104653,104653,104791,9.67073e+17,0.0554396
1.0,3.0,50.01202,15441.046,-857.906,-922.162,-27139.366,0.00028,-0.00033,50.13265,228.518,,0.0,-0.00152,-0.00456,22.86945,26.58381,,,,,,8.25,0.000225286,104890,104890,104774,9.73564e+17,0.0630558
1.0,3.0,50.01195,15441.101,-857.904,-922.162,-27139.4,6e-05,-0.0002,50.13266,228.623,,0.0,-0.00151,-0.00451,22.86949,26.58375,,,,,,8.305,0.000225209,104854,104854,104757,9.80054e+17,0.0619031
1.0,3.0,50.01278,15441.156,-857.904,-922.162,-27139.364,-0.00011,4e-05,50.1337,228.957,,0.0,-0.00147,-0.00458,22.86932,26.58458,,,,,,8.36,0.000224652,104594,104594,104740,9.86545e+17,0.0535446
1.0,3.0,50.01184,15441.211,-857.9049,-922.163,-27139.4,9e-05,-0.00014,50.13238,228.356,,0.0,-0.00147,-0.00451,22.86919,26.58364,,,,,,8.415,0.000225046,104778,104778,104723,9.93035e+17,0.0594559
1.0,3.0,50.01177,15441.266,-857.904,-922.163,-27139.4,4e-05,-0.0001,50.13229,228.338,,0.0,-0.00147,-0.00454,22.86948,26.58356,,,,,,8.47,0.0002251,104803,104803,104706,9.99525e+17,0.0602635
1.0,3.0,50.01282,15441.321,-857.905,-922.162,-27139.364,0.00017,0.00029,50.13367,228.844,,0.0,-0.00149,-0.00452,22.86928,26.58462,,,,,,8.525,0.000224498,104523,104523,104690,1.00602e+18,0.0512411
1.0,3.0,50.01211,15441.376,-857.904,-922.163,-27139.366,-0.00014,0.00012,50.1326,228.294,,0.0,-0.00146,-0.00452,22.86943,26.5839,,,,,,8.58,0.000225082,104795,104795,104674,1.01251e+18,0.0599882
1.0,3.0,50.01171,15441.431,-857.905,-922.163,-27139.364,0.0003,-0.00076,50.13211,228.16,,0.0,-0.00154,-0.00449,22.86948,26.5835,,,,,,8.635,0.000224919,104719,104719,104658,1.019e+18,0.0575577
1.0,3.0,50.01269,15441.486,-857.905,-922.162,-27139.364,-1e-05,0.00042,50.13341,228.638,,0.0,-0.00145,-0.00448,22.86964,26.58449,,,,,,8.69,0.000224371,104464,104464,104642,1.02549e+18,0.0493335
1.0,3.0,50.01202,15441.541,-857.905,-922.163,-27139.4,-0.00021,0.00015,50.13241,228.134,,0.0,-0.00145,-0.00448,22.86939,26.58382,,,,,,8.745,0.000224932,104725,104725,104626,1.03198e+18,0.0577442
1.0,3.0,50.01149,15441.596,-857.904,-922.163,-27139.363,0.00017,-0.00011,50.13179,227.988,,0.0,-0.00147,-0.00455,22.8694,26.58329,,,,,,8.8,0.000224726,104629,104629,104610,1.03847e+18,0.0546524
1.0,3.0,50.01243,15441.651,-857.904,-922.162,-27139.363,4e-05,0.0003,50.13304,228.47,,0.0,-0.00145,-0.00454,22.86941,26.58423,,,,,,8.855,0.000224314,104437,104437,104595,1.04496e+18,0.0484913
1.0,3.0,50.01185,15441.706,-857.905,-922.162,-27139.4,-0.00012,-1e-05,50.13211,227.924,,0.0,-0.00144,-0.0045,22.86942,26.58365,,,,,,8.91,0.000224824,104675,104675,104579,1.05145e+18,0.0561328
1.0,3.0,50.01158,15441.761,-857.905,-922.164,-27139.364,6e-05,-0.00041,50.13183,227.905,,0.0,-0.00147,-0.00452,22.8696,26.58338,,,,,,8.965,0.00022468,104608,104608,104564,1.05794e+18,0.0539769
1.0,3.0,50.01275,15441.816,-857.906,-922.162,-27139.363,-0.00017,-0.00014,50.13329,228.359,,0.0,-0.00146,-0.00452,22.86947,26.58455,,,,,,9.02,0.000224164,104367,104367,104549,1.06443e+18,0.0462303
1.0,3.0,50.01182,15441.871,-857.9057,-922.162,-27139.363,-0.00012,0.00013,50.13202,227.838,,0.0,-0.00147,-0.00454,22.86946,26.58362,,,,,,9.075,0.0002247611,104645,104645,104534,1.07092e+18,0.0551853
1.0,3.0,50.01154,15441.926,-857.905,-922.162,-27139.4,0.00011,0.00039,50.13171,227.795,,0.0,-0.00147,-0.00452,22.86963,26.58334,,,,,,9.13,0.000224637,104587,104587,104519,1.07741e+18,0.0533198
1.0,3.0,50.01246,15441.981,-857.904,-922.163,-27139.363,0.0001,-4e-05,50.13288,228.189,,0.0,-0.00146,-0.00451,22.86934,26.58425,,,,,,9.185,0.000224137,104355,104355,104505,1.0839e+18,0.0458277
1.0,3.0,50.01158,15442.036,-857.905,-922.162,-27139.4,-5e-05,-0.00032,50.13167,227.6705,,0.0,-0.00152,-0.00449,22.86946,26.58337,,,,,,9.24,0.000224614,104577,104577,104490,1.09039e+18,0.0529816
1.0,3.0,50.01177,15442.091,-857.904,-922.163,-27139.4,-0.00019,0.00036,50.13193,227.789,,0.0,-0.0015,-0.00454,22.86959,26.58356,,,,,,9.295,0.000224478,104514,104514,104476,1.09688e+18,0.0509429
1.0,3.0,50.01249,15442.146,-857.904,-922.163,-27139.4,0.00032,7e-05,50.13285,228.097,,0.0,-0.00149,-0.00453,22.86959,26.58428,,,,,,9.35,0.000224044,104312,104312,104462,1.10337e+18,0.0444467
1.0,3.0,50.01177,15442.201,-857.904,-922.162,-27139.4,-0.00018,-0.00056,50.13179,227.556,,0.0,-0.00149,-0.00452,22.86943,26.58357,,,,,,9.405,0.000224412,104483,104483,104447,1.10986e+18,0.0499503
1.0,3.0,50.01184,15442.256,-857.904,-922.162,-27139.364,-6e-05,-1e-05,50.13191,227.644,,0.0,-0.00141,-0.00452,22.86969,26.58363,,,,,,9.46,0.0002244673,104509,104509,104433,1.11635e+18,0.0507827
1.0,3.0,50.01237,15442.311,-857.904,-922.163,-27139.4,-8e-05,0.00012,50.13264,227.945,,0.0,-0.00141,-0.00454,22.86945,26.58416,,,,,,,,,,,,
1.0,3.0,50.01184,15442.366,-857.905,-922.164,-27139.4,0.00043,-0.00026,50.13185,227.535,,0.0,-0.00144,-0.00451,22.86952,26.58364,,,,,,,,,,,,
1.0,3.0,50.01178,15442.421,-857.903,-922.162,-27139.365,-0.00067,0.00024,50.13171,227.418,,0.0,-0.00147,-0.00453,22.86952,26.58358,,,,,,,,,,,,
1.0,3.0,50.01213,15442.476,-857.905,-922.163,-27139.366,-0.00028,0.00013,50.13226,227.723,,0.0,-0.00154,-0.00453,22.86938,26.58393,,,,,,,,,,,,
1.0,3.0,50.01188,15442.531,-857.904,-922.163,-27139.365,0.00021,-0.00038,50.13182,227.443,,0.0,-0.00152,-0.00451,22.86953,26.58367,,,,,,,,,,,,
1.0,3.0,50.01147,15442.586,-857.904,-922.163,-27139.4,-0.00041,7e-05,50.13134,227.3204,,0.0,-0.00147,-0.00456,22.8696,26.58327,,,,,,,,,,,,
1.0,3.0,50.0125,15442.641,-857.905,-922.162,-27139.4,0.0001,0.00037,50.13261,227.7063,,0.0,-0.00146,-0.00453,22.86952,26.58429,,,,,,,,,,,,
1.0,3.0,50.01203,15442.696,-857.906,-922.163,-27139.365,-7e-05,-0.00011,50.13191,227.344,,0.0,-0.00151,-0.00452,22.86948,26.58382,,,,,,,,,,,,
1.0,3.0,50.01164,15442.751,-857.905,-922.163,-27139.4,2e-05,0.00034,50.13142,227.183,,0.0,-0.00146,-0.00455,22.86956,26.58344,,,,,,,,,,,,
1.0,3.0,50.0123,15442.806,-857.905,-922.163,-27139.4,0.00011,0.0005,50.13234,227.587,,0.0,-0.00141,-0.00451,22.86925,26.58409,,,,,,,,,,,,
1.0,3.0,50.01168,15442.861,-857.903,-922.1639,-27139.364,-0.00021,-0.00011,50.13145,227.178,,0.0,-0.00142,-0.00452,22.86966,26.58347,,,,,,,,,,,,
1.0,3.0,50.01141,15442.916,-857.904,-922.162,-27139.4,0.00027,-0.00064,50.13113,227.096,,0.0,-0.00151,-0.00452,22.86954,26.5832,,,,,,,,,,,,
1.0,3.0,50.01243,15442.971,-857.904,-922.163,-27139.4,2e-05,-0.00022,50.1324,227.474,,0.0,-0.00154,-0.00456,22.86951,26.58423,,,,,,,,,,,,
1.0,3.0,50.01178,15443.026,-857.905,-922.162,-27139.4,4e-05,-4e-05,50.13143,226.977,,0.0,-0.00148,-0.00454,22.86955,26.58358,,,,,,,,,,,,
1.0,3.0,50.01126,15443.081,-857.906,-922.162,-27139.365,-0.00011,-0.00043,50.13084,226.886,,0.0,-0.00142,-0.00451,22.8697,26.58305,,,,,,,,,,,,
1.0,3.0,50.0124,15443.136,-857.904,-922.162,-27139.364,0.00014,0.00044,50.1323,227.3683,,0.0,-0.00145,-0.0045,22.86945,26.5842,,,,,,,,,,,,
1.0,3.0,50.01179,15443.191,-857.905,-922.161,-27139.364,-0.00021,0.00026,50.13141,226.9306,,0.0,-0.00144,-0.00452,22.86947,26.58359,,,,,,,,,,,,
1.0,3.0,50.01122,15443.246,-857.904,-922.162,-27139.4,9e-05,-0.0002,50.13076,226.81,,0.0,-0.00148,-0.00456,22.86984,26.58302,,,,,,,,,,,,
1.0,3.0,50.01229,15443.301,-857.904,-922.162,-27139.4,0.00033,0.0,50.13215,227.307,,0.0,-0.00148,-0.00453,22.86958,26.58409,,,,,,,,,,,,
1.0,3.0,50.01149,15443.356,-857.905,-922.162,-27139.4,-0.00043,-5e-05,50.13097,226.722,,0.0,-0.00145,-0.00459,22.8696,26.58329,,,,,,,,,,,,
1.0,3.0,50.01121,15443.411,-857.9041,-922.162,-27139.4,0.00021,-7e-05,50.13069,226.723,,0.0,-0.00144,-0.00456,22.86973,26.58301,,,,,,,,,,,,
1.0,3.0,50.01233,15443.466,-857.905,-922.163,-27139.4,0.0003,0.00015,50.13213,227.2265,,0.0,-0.00149,-0.00451,22.86983,26.58412,,,,,,,,,,,,
1.0,3.0,50.01156,15443.521,-857.905,-922.163,-27139.365,-1e-05,-0.00012,50.131,226.646,,0.0,-0.00146,-0.00454,22.86964,26.58336,,,,,,,,,,,,
1.0,3.0,50.01135,15443.576,-857.904,-922.163,-27139.4,2e-05,-0.00019,50.13077,226.619,,0.0,-0.00145,-0.00456,22.86965,26.58315,,,,,,,,,,,,
1.0,3.0,50.01223,15443.631,-857.9049,-922.162,-27139.364,0.00026,-0.00011,50.13195,227.085,,0.0,-0.00145,-0.00455,22.86984,26.58403,,,,,,,,,,,,
1.0,3.0,50.0117,15443.686,-857.904,-922.163,-27139.365,-0.00035,-0.00037,50.13109,226.585,,0.0,-0.00147,-0.00456,22.8699,26.58349,,,,,,,,,,,,
1.0,3.0,50.0114,15443.741,-857.903,-922.162,-27139.363,-0.0002,0.00024,50.13078,226.564,,0.0,-0.00145,-0.00454,22.86968,26.58319,,,,,,,,,,,,
1.0,3.0,50.01245,15443.796,-857.904,-922.163,-27139.4,0.00017,0.00026,50.13212,227.001,,0.0,-0.00148,-0.0046,22.86977,26.58425,,,,,,,,,,,,
1.0,3.0,50.01154,15443.851,-857.904,-922.163,-27139.364,0.00039,-0.00015,50.13084,226.45,,0.0,-0.00146,-0.00456,22.86964,26.58333,,,,,,,,,,,,
1.0,3.0,50.01134,15443.906,-857.904,-922.162,-27139.363,-0.0001,0.0002,50.13064,226.442,,0.0,-0.00146,-0.00454,22.86976,26.58314,,,,,,,,,,,,
1.0,3.0,50.01227,15443.961,-857.9058,-922.164,-27139.364,2e-05,8e-05,50.13182,226.832,,0.0,-0.00145,-0.00454,22.86994,26.58407,,,,,,,,,,,,
1.0,3.0,50.01158,15444.016,-857.904,-922.163,-27139.4,-0.00053,-0.0002,50.13083,226.353,,0.0,-0.00148,-0.00457,22.8696,26.58338,,,,,,,,,,,,
1.0,3.0,50.01136,15444.071,-857.904,-922.1621,-27139.365,0.0002,0.00035,50.13062,226.368,,0.0,-0.00145,-0.00455,22.86967,26.58316,,,,,,,,,,,,
1.0,3.0,50.01227,15444.126,-857.904,-922.163,-27139.364,-0.00043,0.0002,50.13172,226.672,,0.0,-0.00149,-0.00452,22.86971,26.58406,,,,,,,,,,,,
1.0,3.0,50.01156,15444.181,-857.9041,-922.163,-27139.4,1e-05,0.00011,50.13078,226.317,,0.0,-0.0015,-0.00453,22.86968,26.58336,,,,,,,,,,,,
1.0,3.0,50.01129,15444.236,-857.904,-922.163,-27139.4,-7e-05,-1e-05,50.13044,226.203,,0.0,-0.00156,-0.00455,22.86978,26.58309,,,,,,,,,,,,
1.0,3.0,50.01204,15444.291,-857.904,-922.163,-27139.4,-0.00038,-0.00022,50.13143,226.574,,0.0,-0.00153,-0.00455,22.86964,26.58384,,,,,,,,,,,,
1.0,3.0,50.01177,15444.346,-857.905,-922.163,-27139.4,0.00015,-0.00044,50.13099,226.317,,0.0,-0.00155,-0.00451,22.86968,26.58356,,,,,,,,,,,,
1.0,3.0,50.01126,15444.401,-857.904,-922.1621,-27139.4,0.00013,-0.00022,50.13034,226.102,,0.0,-0.00144,-0.00457,22.86987,26.58305,,,,,,,,,,,,
1.0,3.0,50.01201,15444.456,-857.905,-922.163,-27139.4,-0.00054,0.00014,50.13133,226.462,,0.0,-0.00148,-0.00455,22.86969,26.5838,,,,,,,,,,,,
1.0,3.0,50.01183,15444.511,-857.904,-922.163,-27139.363,1e-05,0.00067,50.13103,226.277,,0.0,-0.00141,-0.00457,22.86976,26.58363,,,,,,,,,,,,
1.0,3.0,50.01101,15444.566,-857.904,-922.162,-27139.4,-0.00016,-0.00025,50.12997,225.9048,,0.0,-0.00145,-0.00458,22.86974,26.58281,,,,,,,,,,,,
1.0,3.0,50.01178,15444.621,-857.9049,-922.162,-27139.4,-0.00013,0.00039,50.13101,226.326,,0.0,-0.00146,-0.00458,22.8699,26.58358,,,,,,,,,,,,
1.0,3.0,50.01167,15444.676,-857.905,-922.163,-27139.4,0.0001,-0.00018,50.13082,226.198,,0.0,-0.0015,-0.00454,22.8697,26.58347,,,,,,,,,,,,
1.0,3.0,50.01112,15444.731,-857.903,-922.163,-27139.4,0.0,-0.00045,50.13002,225.822,,0.0,-0.00149,-0.00453,22.86972,26.58291,,,,,,,,,,,,
1.0,3.0,50.01198,15444.786,-857.904,-922.163,-27139.4,5e-05,-5e-05,50.13121,226.3229,,0.0,-0.0015,-0.00453,22.86994,26.58378,,,,,,,,,,,,
1.0,4.0,49.69859,15444.841,-857.905,-922.163,-27139.4,0.00017,0.00022,49.80225,202.1293,,0.0,-0.00144,-0.00452,22.8698,26.27039,,,,,,,,,,,,
1.0,4.0,48.87706,15444.896,-857.905,-922.162,-27139.4,-0.00019,-0.00041,48.95354,159.91,,0.0,-0.00147,-0.00453,22.86983,25.44885,,,,,,,,,,,,
1.0,4.0,47.74286,15444.951,-857.905,-922.163,-27139.4,0.00029,0.00055,47.79345,119.6636,,0.0,-0.0015,-0.00456,22.86982,24.31466,,,,,,,,,,,,
1.0,4.0,46.43139,15445.006,-857.904,-922.163,-27139.4,-0.0001,0.00023,46.46163,88.04964,,0.0,-0.00149,-0.00455,22.86992,23.00318,,,,,,,,,,,,
1.0,4.0,45.03239,15445.061,-857.906,-922.1639,-27139.365,0.00012,-0.00017,45.04943,67.52771,,0.0,-0.00148,-0.00455,22.86997,21.60419,,,,,,,,,,,,
1.0,4.0,43.60135,15445.116,-857.904,-922.163,-27139.4,-0.0001,0.00022,43.61098,56.01644,,0.0,-0.00151,-0.00457,22.86988,20.17314,,,,,,,,,,,,
1.0,4.0,42.16154,15445.171,-857.904,-922.162,-27139.4,0.0001,0.00018,42.16579,47.6671,,0.0,-0.00152,-0.0046,22.86985,18.73333,,,,,,,,,,,,
1.0,4.0,40.72358,15445.226,-857.905,-922.163,-27139.4,0.00011,-0.0001,40.72339,40.75569,,0.0,-0.00148,-0.00453,22.86978,17.29538,,,,,,,,,,,,
1.0,4.0,39.29445,15445.281,-857.9049,-922.162,-27139.4,8e-05,0.00028,39.29066,35.16516,,0.0,-0.00146,-0.00453,22.86988,15.86625,,,,,,,,,,,,
1.0,4.0,37.87018,15445.336,-857.904,-922.162,-27139.365,0.00019,0.00052,37.86287,29.70361,,0.0,-0.00155,-0.00453,22.86987,14.44197,,,,,,,,,,,,
1.0,4.0,36.44988,15445.391,-857.905,-922.163,-27139.4,-0.00041,-0.00011,36.43924,24.51854,,0.0,-0.00155,-0.00457,22.87006,13.02168,,,,,,,,,,,,
1.0,4.0,35.03648,15445.446,-857.904,-922.163,-27139.4,0.00037,0.00029,35.02303,20.14536,,0.0,-0.00154,-0.00455,22.86984,11.60828,,,,,,,,,,,,
1.0,4.0,33.62615,15445.501,-857.904,-922.163,-27139.4,-7e-05,0.00029,33.60964,15.4122,,0.0,-0.00141,-0.00454,22.86976,10.19794,,,,,,,,,,,,
1.0,4.0,32.21746,15445.556,-857.905,-922.162,-27139.4,3e-05,-7e-05,32.19794,10.71452,,0.0,-0.00149,-0.00456,22.86997,8.78926,,,,,,,,,,,,
1.0,4.0,30.81321,15445.611,-857.905,-922.162,-27139.4,0.0001,0.00035,30.79114,6.76497,,0.0,-0.00148,-0.00455,22.86985,7.385,,,,,,,,,,,,
1.0,4.0,29.41039,15445.666,-857.904,-922.162,-27139.4,0.0001,0.0004,29.38566,2.63403,,0.0,-0.00147,-0.00454,22.86991,5.98218,,,,,,,,,,,,
1.0,4.0,28.00831,15445.721,-857.905,-922.162,-27139.4,-0.00022,0.0003,27.98119,-1.08245,,0.0,-0.00148,-0.00453,22.86997,4.58011,,,,,,,,,,,,
1.0,4.0,26.60859,15445.776,-857.904,-922.163,-27139.4,0.00029,0.00052,26.5812,-1.50713,,0.0,-0.00149,-0.00449,22.86978,3.18039,,,,,,,,,,,,
1.0,4.0,25.20987,15445.831,-857.904,-922.163,-27139.363,-0.00026,5e-05,25.18239,-1.64773,,0.0,-0.00147,-0.00449,22.86987,1.78166,,,,,,,,,,,,
1.0,4.0,23.81175,15445.886,-857.906,-922.163,-27139.363,-1e-05,0.00011,23.78418,-1.79947,,0.0,-0.00151,-0.00452,22.86969,0.38355,,,,,,,,,,,,
1.0,4.0,22.41757,15445.941,-857.905,-922.162,-27139.4,5e-05,-2e-05,22.3899,-1.93916,,0.0,-0.00145,-0.0045,22.86992,-1.01063,,,,,,,,,,,,
1.0,4.0,21.02316,15445.996,-857.905,-922.162,-27139.362,0.00029,-0.00012,20.9954,-2.08793,,0.0,-0.00149,-0.0045,22.86988,-2.40504,,,,,,,,,,,,
1.0,4.0,19.6285,15446.051,-857.904,-922.163,-27139.4,-0.00024,0.0002,19.60065,-2.228,,0.0,-0.00151,-0.00457,22.86983,-3.7997,,,,,,,,,,,,
1.0,4.0,18.23705,15446.106,-857.904,-922.162,-27139.364,0.00015,0.00019,18.2091,-2.37067,,0.0,-0.00151,-0.0045,22.87,-5.19116,,,,,,,,,,,,
1.0,4.0,16.8451,15446.161,-857.9049,-922.163,-27139.365,-3e-05,0.00032,16.81706,-2.51691,,0.0,-0.00153,-0.00455,22.86993,-6.5831,,,,,,,,,,,,
1.0,4.0,15.45346,15446.216,-857.905,-922.162,-27139.4,-9e-05,0.0003,15.42533,-2.66584,,0.0,-0.00154,-0.0045,22.87,-7.97474,,,,,,,,,,,,
1.0,4.0,14.06475,15446.271,-857.9059,-922.163,-27139.4,-0.0,0.00042,14.03651,-2.82096,,0.0,-0.00154,-0.00451,22.87003,-9.36346,,,,,,,,,,,,
1.0,4.0,12.67561,15446.326,-857.904,-922.162,-27139.4,-3e-05,-3e-05,12.64729,-2.95918,,0.0,-0.00149,-0.00454,22.86996,-10.75259,,,,,,,,,,,,
1.0,4.0,11.28625,15446.381,-857.904,-922.162,-27139.364,-3e-05,-7e-05,11.25783,-3.1095,,0.0,-0.00145,-0.00453,22.86993,-12.14195,,,,,,,,,,,,
1.0,4.0,9.89982,15446.436,-857.905,-922.162,-27139.4,-0.00035,0.00029,9.87131,-3.25019,,0.0,-0.00147,-0.00449,22.86998,-13.52838,,,,,,,,,,,,
1.0,4.0,8.51357,15446.491,-857.904,-922.163,-27139.4,0.00012,0.0002,8.48497,-3.39834,,0.0,-0.00146,-0.00455,22.87019,-14.91463,,,,,,,,,,,,
1.0,4.0,7.12734,15446.546,-857.904,-922.163,-27139.4,0.00015,-0.0003,7.09863,-3.55232,,0.0,-0.00148,-0.00455,22.86994,-16.30087,,,,,,,,,,,,
1.0,4.0,5.74428,15446.601,-857.905,-922.162,-27139.4,-0.00011,0.00047,5.71549,-3.69451,,0.0,-0.00149,-0.00451,22.86998,-17.68392,,,,,,,,,,,,
1.0,4.0,4.36119,15446.656,-857.904,-922.163,-27139.4,-0.00015,0.00015,4.3323,-3.84068,,0.0,-0.00153,-0.00454,22.86999,-19.06702,,,,,,,,,,,,
1.0,4.0,2.97875,15446.711,-857.905,-922.163,-27139.4,0.00022,-3e-05,2.94978,-3.97211,,0.0,-0.0015,-0.00455,22.86992,-20.44945,,,,,,,,,,,,
1.0,4.0,1.60079,15446.766,-857.904,-922.163,-27139.4,-0.00012,0.00053,1.57172,-4.11877,,0.0,-0.00149,-0.00455,22.87006,-21.82741,,,,,,,,,,,,
1.0,4.0,0.42482,15446.821,-857.904,-922.163,-27139.4,0.00019,0.00058,0.39567,-4.23655,,0.0,-0.00149,-0.00456,22.86991,-23.00339,,,,,,,,,,,,
1.0,4.0,0.21228,15446.841,-857.904,-922.162,-27139.4,7e-05,0.0002,0.18312,-4.26103,,0.0,-0.00149,-0.00455,22.86998,-23.21593,,,,,,,,,,,,