File: dataset_example/processed_data/ForceRelax_example/data/data_1_Measurements/GMM Fitting Results/data_1_9_GMM Fit.csv
Index [#],Phase [#],Displacement [um],Time [s],Pos X [um],Pos Y [um],Pos Z [um],Piezo X [um],Piezo Y [um],Piezo Z [um],Force A [uN],Force B [uN],Gripper [V],Voltage A [V],Voltage B [V],Temperature [oC],Sample Displacement [um],Filtered time [uN},Filtered force [uN],SG Force [uN],Est Force 2nd derivative,Filtered displacement [um],Sel Time [s],Sel Force [N],Sel Modulus Uncorrected [Pa],Sel Modulus Corrected [Pa],Sel Modulus GMM Fit [Pa],Sel Time Normalised [s m-2],Sel Force Normalised []
8.0,2.0,0.01418,15584.706,-357.905,77.837,-27145.978,-0.0001,-0.00032,-0.11893,-0.25804,,0.0,-0.00151,-0.00454,22.88541,-15.7808,15584.706,-0.25804,-0.26183,0.000344385,-0.11893,0.0,0.0002568688,117821,117821,118853,0.0,1.0
8.0,2.0,0.5192,15584.761,-357.907,77.837,-27145.977,0.00024,0.00045,0.38611,-0.24429,,0.0,-0.00152,-0.00452,22.8853,-15.27577,15584.761,-0.24429,-0.242398,0.000344385,0.38611,0.055,0.000245957,112816,112816,112435,6362416837374942.0,0.814571
8.0,2.0,1.48297,15584.816,-357.907,77.837,-27145.979,-8e-05,0.00032,1.34991,-0.18307,,0.0,-0.0015,-0.00453,22.88546,-14.31201,15584.816,-0.18307,-0.181231,0.000230987,1.34991,0.11,0.000235654,108090,108090,108257,1.27248e+16,0.63949
8.0,2.0,2.70081,15584.871,-357.906,77.837,-27146,0.00023,-0.00037,2.56782,-0.08692,,0.0,-0.00152,-0.00451,22.88542,-13.09416,15584.871,-0.08692,-0.0933944,4.8679e-05,2.56782,0.165,0.00022981,105409,105409,105501,1.90873e+16,0.540177
8.0,2.0,4.07219,15584.926,-357.907,77.838,-27145.98,-2e-05,-0.00025,3.93925,0.00443,,0.0,-0.00152,-0.00453,22.88543,-11.72279,15584.926,0.00443,0.00132107,8.15278e-05,3.93925,0.22,0.000225868,103601,103601,103651,2.54497e+16,0.473194
8.0,2.0,5.49246,15584.981,-357.907,77.837,-27146,-0.00033,-6e-05,5.35959,0.11184,,0.0,-0.0015,-0.00452,22.8855,-10.30252,15584.981,0.11184,0.106133,-3.04265e-05,5.35959,0.275,0.000222888,102234,102234,102379,3.18121e+16,0.422553
8.0,2.0,6.92166,15585.036,-357.906,77.837,-27145.979,0.00056,-0.00059,6.78886,0.20993,,0.0,-0.00148,-0.00454,22.88565,-8.87332,15585.036,0.20993,0.210746,-5.76481e-06,6.78886,0.33,0.000221472,101585,101585,101478,3.81745e+16,0.398488
8.0,2.0,8.348,15585.091,-357.906,77.837,-27145.98,0.00013,-4e-05,8.21527,0.31732,,0.0,-0.00153,-0.00453,22.88542,-7.44697,15585.091,0.31732,0.313573,-9.07637e-05,8.21527,0.385,0.000220008,100914,100914,100817,4.45369e+16,0.373621
8.0,2.0,9.76744,15585.146,-357.906,77.837,-27145.98,0.00028,0.00012,9.63477,0.41014,,0.0,-0.00152,-0.00459,22.88543,-6.02754,15585.146,0.41014,0.406247,8.66818e-06,9.63477,0.44,0.000218555,100247,100247,100313,5.08993e+16,0.348931
8.0,2.0,11.17826,15585.201,-357.9069,77.837,-27145.98,8e-05,-0.00045,11.04564,0.49534,,0.0,-0.00148,-0.00454,22.88551,-4.61672,15585.201,0.49534,0.499319,4.60216e-06,11.04564,0.495,0.000218185,100077,100077,99911.5,5.72618e+16,0.342637
8.0,2.0,12.58642,15585.256,-357.907,77.83799,-27145.98,-0.00018,-0.00027,12.45387,0.60257,,0.0,-0.00149,-0.00456,22.88543,-3.20856,15585.256,0.60257,0.59429,7.77668e-05,12.45387,0.55,0.000217333,99686.5,99686.5,99580.2,6.36242e+16,0.328161
8.0,2.0,13.98894,15585.311,-357.906,77.8371,-27145.98,0.00043,0.00028,13.85644,0.69368,,0.0,-0.00147,-0.00452,22.88545,-1.80604,15585.311,0.69368,0.698844,7.14159e-05,13.85644,0.605,0.000216175,99155.1,99155.1,99297,6.99866e+16,0.308474
8.0,2.0,15.38599,15585.366,-357.906,77.837,-27145.98,-0.00059,6e-05,15.25357,0.80524,,0.0,-0.00145,-0.00456,22.88555,-0.40899,15585.366,0.80524,0.815456,-0.000362267,15.25357,0.66,0.000216099,99120.6,99120.6,99048,7.6349e+16,0.307198
8.0,2.0,16.78198,15585.421,-357.907,77.837,-27145.98,0.00041,-6e-05,16.64962,0.89116,,0.0,-0.00147,-0.00456,22.88551,0.98701,15585.421,0.89116,0.88843,-0.000149826,16.64962,0.715,0.000215688,98931.7,98931.7,98824.3,8.27114e+16,0.300199
8.0,2.0,18.17574,15585.476,-357.907,77.837,-27145.98,1e-05,-0.00043,18.04342,0.95423,,0.0,-0.00152,-0.00451,22.88562,2.38076,15585.476,0.95423,0.943186,0.000440097,18.04342,0.77,0.000214592,98429,98429,98619.7,8.90738e+16,0.281576
8.0,2.0,19.56409,15585.531,-357.907,77.8371,-27145.98,-0.00027,-0.00044,19.43182,1.04216,,0.0,-0.00145,-0.0046,22.88554,3.76911,15585.531,1.04216,1.04515,-1.83452e-05,19.43182,0.825,0.000214644,98452.9,98452.9,98430.4,9.54363e+16,0.282461
8.0,2.0,20.95307,15585.586,-357.907,77.83601,-27145.981,-0.00017,-0.00058,20.82087,1.14452,,0.0,-0.00156,-0.00459,22.88558,5.15809,15585.586,1.14452,1.14235,6.34213e-06,20.82087,0.88,0.00021444,98359.4,98359.4,98253.7,1.01799e+17,0.278995
8.0,2.0,22.34049,15585.641,-357.9071,77.837,-27145.981,6e-05,-0.00024,22.20835,1.2439,,0.0,-0.00153,-0.00455,22.88542,6.54551,15585.641,1.2439,1.23885,-6.12934e-06,22.20835,0.935,0.000213572,97961.5,97961.5,98087.6,1.08161e+17,0.264255
8.0,2.0,23.72429,15585.696,-357.907,77.837,-27145.981,-0.0,-0.00057,23.59221,1.33343,,0.0,-0.00155,-0.00459,22.88564,7.92931,15585.696,1.33343,1.33351,6.54233e-05,23.59221,0.99,0.000213556,97953.8,97953.8,97930.9,1.14524e+17,0.26397
8.0,2.0,25.10851,15585.751,-357.907,77.838,-27145.981,8e-05,-0.00023,24.9765,1.43506,,0.0,-0.0015,-0.00456,22.88568,9.31354,15585.751,1.43506,1.35764,0.00866655,24.9765,1.045,0.000213352,97860.5,97860.5,97782.4,1.20886e+17,0.260512
8.0,2.0,26.49084,15585.806,-357.908,77.837,-27145.981,0.00044,-0.00014,26.35941,2.34501,,0.0,-0.00153,-0.00462,22.88558,10.69586,15585.806,2.34501,2.56354,0.0534792,26.35941,1.1,0.000212517,97477.4,97477.4,97641.5,1.27248e+17,0.24632
8.0,2.0,27.86768,15585.861,-357.907,77.837,-27145.981,-0.00054,-0.00016,27.7413,10.19647,,0.0,-0.00149,-0.00458,22.88562,12.0727,15585.861,10.19647,10.1632,0.0367715,27.7413,1.155,0.000212571,97502.3,97502.3,97507.3,1.33611e+17,0.24724
8.0,2.0,29.24541,15585.916,-357.907,77.838,-27145.981,8e-05,4e-05,29.1269,22.42779,,0.0,-0.0015,-0.00457,22.88552,13.45043,15585.916,22.42779,22.4712,0.0156642,29.1269,1.21,0.000212512,97475.1,97475.1,97379.4,1.39973e+17,0.246236
8.0,2.0,30.62445,15585.971,-357.907,77.837,-27146,0.0002,-0.0004,30.51509,36.64534,,0.0,-0.00153,-0.00459,22.88554,14.82947,15585.971,36.64534,36.565,0.00239647,30.51509,1.265,0.0002117119,97108.2,97108.2,97257.4,1.46336e+17,0.232639
8.0,2.0,32.00054,15586.026,-357.907,77.837,-27145.982,0.00011,-0.0007,31.90035,50.89334,,0.0,-0.0015,-0.00459,22.88556,16.20557,15586.026,50.89334,50.9683,0.00616746,31.90035,1.32,0.000211697,97101.5,97101.5,97140.8,1.52698e+17,0.232392
8.0,2.0,33.37857,15586.081,-357.907,77.837,-27145.982,-0.00063,-0.0005,33.28823,66.20442,,0.0,-0.00147,-0.00458,22.88562,17.58359,15586.081,66.20442,66.124,0.00577915,33.28823,1.375,0.000211691,97098.5,97098.5,97029.3,1.5906e+17,0.232283
8.0,2.0,34.7549,15586.136,-357.906,77.838,-27145.983,0.00036,-0.00046,34.67473,82.00595,,0.0,-0.0015,-0.00458,22.88549,18.95992,15586.136,82.00595,81.9454,0.000167961,34.67473,1.43,0.000211063,96810.7,96810.7,96922.5,1.65423e+17,0.221618
8.0,2.0,36.12993,15586.191,-357.907,77.837,-27146,0.00022,-0.00023,36.0598,97.60631,,0.0,-0.00146,-0.00459,22.88573,20.33495,15586.191,97.60631,97.7976,0.00069132,36.0598,1.485,0.000211073,96815.3,96815.3,96820.1,1.71785e+17,0.22179
8.0,2.0,37.50572,15586.246,-357.906,77.838,-27145.983,0.00019,8e-05,37.44603,113.824,,0.0,-0.00157,-0.0046,22.88547,21.71075,15586.246,113.824,113.755,0.00310551,37.44603,1.54,0.0002110992,96827.1,96827.1,96721.8,1.78148e+17,0.222228
8.0,2.0,38.88067,15586.301,-357.9069,77.83785,-27145.982,0.00069,-0.00019,38.83153,130.209,,0.0,-0.00151,-0.00458,22.88553,23.0857,15586.301,130.209,130.096,0.00401675,38.83153,1.595,0.000210446,96527.5,96527.5,96627.5,1.8451e+17,0.211129
8.0,2.0,40.25296,15586.356,-357.908,77.837,-27145.982,0.00025,-0.00037,40.21442,146.689,,0.0,-0.00146,-0.00457,22.88566,24.45799,15586.356,146.689,146.904,0.00259947,40.21442,1.65,0.000210486,96546.1,96546.1,96536.8,1.90873e+17,0.211816
8.0,2.0,41.6267,15586.411,-357.906,77.8371,-27146,-3e-05,-0.00021,41.59942,164.199,,0.0,-0.00148,-0.00459,22.88554,25.83172,15586.411,164.199,164.054,0.00219993,41.59942,1.705,0.000210521,96561.8,96561.8,96449.5,1.97235e+17,0.212397
8.0,2.0,42.9994,15586.466,-357.906,77.838,-27145.981,-0.00015,-0.00045,42.98332,181.591,,0.0,-0.00147,-0.00459,22.8857,27.20442,15586.466,181.591,181.459,0.00042779,42.98332,1.76,0.000209841,96249.9,96249.9,96365.5,2.03597e+17,0.200843
8.0,2.0,44.36991,15586.521,-357.907,77.837,-27146,-0.00013,-0.00057,44.36485,198.71,,0.0,-0.0014,-0.00461,22.88554,28.57493,15586.521,198.71,198.911,0.00228584,44.36485,1.815,0.000209922,96287.2,96287.2,96284.4,2.0996e+17,0.202226
8.0,2.0,45.74014,15586.576,-357.907,77.837,-27145.983,-0.0001,-0.00035,45.74664,216.681,,0.0,-0.00145,-0.00457,22.8855,29.94517,15586.576,216.681,216.652,0.00329734,45.74664,1.87,0.000209997,96321.4,96321.4,96206.3,2.16322e+17,0.203491
8.0,2.0,47.10961,15586.631,-357.907,77.838,-27145.982,0.00011,-0.00014,47.1279,235.014,,0.0,-0.0014,-0.00453,22.88578,31.31463,15586.631,235.014,234.81,0.00413275,47.1279,1.925,0.000209384,96040.2,96040.2,96130.8,2.22685e+17,0.193074
8.0,2.0,48.47468,15586.686,-357.907,77.838,-27145.983,0.00031,-0.00079,48.50473,253.275,,0.0,-0.00141,-0.00455,22.88576,32.6797,15586.686,253.275,253.275,0.000796714,48.50473,1.98,0.0002093318,96016.5,96016.5,96057.9,2.29047e+17,0.192194
8.0,3.0,49.53102,15586.741,-357.9061,77.83785,-27146,-0.0006,-0.00011,49.56177,254.368,,0.0,-0.00136,-0.00456,22.88571,33.73604,,,,,,2.035,0.000209569,96125.4,96125.4,95987.3,2.35409e+17,0.196229
8.0,3.0,49.92727,15586.796,-357.906,77.837,-27145.982,-9e-05,-0.00013,49.95057,242.786,,0.0,-0.00147,-0.00458,22.8857,34.13229,,,,,,2.09,0.000208897,95816.8,95816.8,95919,2.41772e+17,0.184797
8.0,3.0,50.05432,15586.851,-357.906,77.838,-27145.983,-0.0001,-0.00029,50.0724,234.683,,0.0,-0.0015,-0.00455,22.88587,34.25934,,,,,,2.145,0.000208935,95834.5,95834.5,95852.8,2.48134e+17,0.185455
8.0,3.0,50.0852,15586.906,-357.907,77.837,-27145.982,-0.00024,-9e-05,50.10024,229.953,,0.0,-0.00148,-0.00455,22.88556,34.29022,,,,,,2.2,0.000209115,95917,95917,95788.6,2.54497e+17,0.18851
8.0,3.0,50.0848,15586.961,-357.906,77.837,-27145.983,0.00035,8e-05,50.09807,227.199,,0.0,-0.0015,-0.00454,22.88569,34.28982,,,,,,2.255,0.000208606,95683.6,95683.6,95726.2,2.60859e+17,0.179861
8.0,3.0,50.07414,15587.016,-357.907,77.837,-27145.983,5e-05,-4e-05,50.08581,224.715,,0.0,-0.00152,-0.00454,22.88569,34.27916,,,,,,2.31,0.000208545,95655.5,95655.5,95665.7,2.67222e+17,0.178821
8.0,3.0,50.06249,15587.071,-357.908,77.8371,-27146,-0.0002,-0.00011,50.0731,223.07,,0.0,-0.00148,-0.0045,22.88579,34.26751,,,,,,2.365,0.000208729,95739.9,95739.9,95606.8,2.73584e+17,0.181948
8.0,3.0,50.05415,15587.126,-357.906,77.837,-27145.984,-0.0,-0.00024,50.06426,222.289,,0.0,-0.00148,-0.00452,22.8855,34.25918,,,,,,2.42,0.000208058,95432.2,95432.2,95549.5,2.79946e+17,0.170549
8.0,3.0,50.04588,15587.181,-357.906,77.83715,-27146,-0.00019,-0.0002,50.0551,220.904,,0.0,-0.00148,-0.00453,22.88569,34.2509,,,,,,2.475,0.000208157,95477.5,95477.5,95493.8,2.86309e+17,0.172228
8.0,3.0,50.03963,15587.236,-357.907,77.837,-27145.984,0.00015,-0.00029,50.04831,220.069,,0.0,-0.00144,-0.00457,22.88576,34.24465,,,,,,2.53,0.000208375,95577.4,95577.4,95439.4,2.92671e+17,0.175929
8.0,3.0,50.03623,15587.291,-357.906,77.83715,-27146,-1e-05,3e-05,50.04474,219.811,,0.0,-0.00145,-0.00452,22.88568,34.24125,,,,,,2.585,0.000207715,95275,95275,95386.5,2.99034e+17,0.164726
8.0,3.0,50.03218,15587.346,-357.907,77.837,-27145.983,0.00038,-3e-05,50.04005,218.816,,0.0,-0.00141,-0.00453,22.88585,34.2372,,,,,,2.64,0.000207722,95278.2,95278.2,95334.7,3.05396e+17,0.164845
8.0,3.0,50.02881,15587.401,-357.907,77.83621,-27146,-5e-05,-0.00011,50.03619,218.049,,0.0,-0.00145,-0.00453,22.88569,34.23384,,,,,,2.695,0.000208075,95439.9,95439.9,95284.3,3.11758e+17,0.170833
8.0,3.0,50.02814,15587.456,-357.906,77.83601,-27145.984,-0.0,0.00016,50.0356,218.179,,0.0,-0.00144,-0.00451,22.88573,34.23316,,,,,,2.75,0.000207461,95158.3,95158.3,95234.9,3.18121e+17,0.1604
8.0,3.0,50.02588,15587.511,-357.907,77.83771,-27146,0.00031,4e-05,50.03282,217.368,,0.0,-0.00143,-0.00453,22.88576,34.2309,,,,,,2.805,0.000207377,95119.8,95119.8,95186.7,3.24483e+17,0.158976
8.0,3.0,50.0242,15587.566,-357.907,77.837,-27145.985,-0.00015,-0.00019,50.03083,216.8745,,0.0,-0.00149,-0.00452,22.88559,34.22922,,,,,,2.86,0.000207748,95290.2,95290.2,95139.5,3.30846e+17,0.165287
8.0,3.0,50.0243,15587.621,-357.906,77.838,-27146,-0.00026,0.00052,50.03103,217.0352,,0.0,-0.00144,-0.00454,22.88581,34.22932,,,,,,2.915,0.00020716,95020.4,95020.4,95093.3,3.37208e+17,0.155293
8.0,3.0,50.02273,15587.676,-357.906,77.836,-27145.984,-0.00023,0.00017,50.02897,216.268,,0.0,-0.00139,-0.00448,22.8858,34.22775,,,,,,2.97,0.00020706,94974.3,94974.3,95048,3.43571e+17,0.153585
8.0,3.0,50.02107,15587.731,-357.907,77.8371,-27145.984,-0.00013,-0.0004,50.02697,215.754,,0.0,-0.00146,-0.00449,22.88574,34.22609,,,,,,3.025,0.000207429,95143.5,95143.5,95003.7,3.49933e+17,0.159853
8.0,3.0,50.02155,15587.786,-357.907,77.837,-27145.985,0.00014,0.00013,50.02759,215.964,,0.0,-0.00144,-0.00453,22.88571,34.22658,,,,,,3.08,0.000206903,94902.3,94902.3,94960.2,3.56295e+17,0.150915
8.0,3.0,50.02074,15587.841,-357.906,77.83785,-27146,-0.00041,-0.00012,50.02641,215.384,,0.0,-0.00137,-0.00451,22.88581,34.22577,,,,,,3.135,0.000206769,94840.7,94840.7,94917.5,3.62658e+17,0.148636
8.0,3.0,50.01948,15587.896,-357.907,77.837,-27145.984,-0.00036,-0.00052,50.0248,214.844,,0.0,-0.00143,-0.00451,22.88585,34.2245,,,,,,3.19,0.000207079,94983.1,94983.1,94875.6,3.6902e+17,0.153912
8.0,3.0,50.01979,15587.951,-357.907,77.8379,-27145.984,0.0003,0.00018,50.02528,215.105,,0.0,-0.00147,-0.00455,22.88585,34.22481,,,,,,3.245,0.000206639,94781.5,94781.5,94834.5,3.75383e+17,0.146442
8.0,3.0,50.01904,15588.006,-357.905,77.83701,-27145.985,-7e-05,0.0005,50.0242,214.604,,0.0,-0.00147,-0.0045,22.88579,34.22406,,,,,,3.3,0.0002064727,94705,94705,94794.1,3.81745e+17,0.143609
8.0,3.0,50.01789,15588.061,-357.907,77.837,-27146,0.00016,0.00034,50.02274,214.105,,0.0,-0.00146,-0.00447,22.88593,34.22292,,,,,,3.355,0.000206793,94851.7,94851.7,94754.3,3.88107e+17,0.149043
8.0,3.0,50.0183,15588.116,-357.906,77.837,-27145.985,-3e-05,-0.00026,50.02326,214.288,,0.0,-0.00149,-0.00453,22.88573,34.22332,,,,,,3.41,0.000206431,94685.8,94685.8,94715.3,3.9447e+17,0.142894
8.0,3.0,50.01783,15588.171,-357.907,77.837,-27146,0.00038,5e-05,50.02254,213.9012,,0.0,-0.00149,-0.00449,22.88591,34.22285,,,,,,3.465,0.000206246,94601.1,94601.1,94676.8,4.00832e+17,0.139759
8.0,3.0,50.01686,15588.226,-357.907,77.838,-27145.985,-0.00016,8e-05,50.02129,213.465,,0.0,-0.00148,-0.00451,22.88578,34.22188,,,,,,3.52,0.000206508,94721,94721,94639,4.07195e+17,0.144201
8.0,3.0,50.01755,15588.281,-357.9069,77.83785,-27145.985,5e-05,-0.00019,50.02212,213.673,,0.0,-0.00144,-0.00453,22.8858,34.22257,,,,,,3.575,0.000206208,94583.8,94583.8,94601.8,4.13557e+17,0.139117
8.0,3.0,50.01688,15588.336,-357.906,77.837,-27145.985,2e-05,-0.00025,50.02119,213.27,,0.0,-0.00149,-0.00448,22.88584,34.2219,,,,,,3.63,0.000205939,94460.1,94460.1,94565.1,4.1992e+17,0.134535
8.0,3.0,50.01608,15588.391,-357.906,77.837,-27145.985,-0.00036,0.00018,50.02011,212.842,,0.0,-0.00141,-0.0045,22.8859,34.2211,,,,,,3.685,0.000206286,94619.5,94619.5,94529,4.26282e+17,0.14044
8.0,3.0,50.01671,15588.446,-357.907,77.837,-27145.985,0.0002,-0.00027,50.02091,213.109,,0.0,-0.0014,-0.00446,22.88581,34.22173,,,,,,3.74,0.000206085,94527.2,94527.2,94493.3,4.32644e+17,0.137019
8.0,3.0,50.01638,15588.501,-357.9061,77.83785,-27146,-2e-05,-9e-05,50.02038,212.794,,0.0,-0.00144,-0.00452,22.88597,34.2214,,,,,,3.795,0.000205682,94342.5,94342.5,94458.2,4.39007e+17,0.130176
8.0,3.0,50.01539,15588.556,-357.906,77.83799,-27145.984,-0.00017,-9e-05,50.01905,212.273,,0.0,-0.00147,-0.00452,22.88589,34.22041,,,,,,3.85,0.000206034,94503.7,94503.7,94423.6,4.45369e+17,0.136149
8.0,3.0,50.01608,15588.611,-357.906,77.8361,-27146,-0.00031,0.0002,50.01994,212.567,,0.0,-0.00139,-0.00452,22.88581,34.22111,,,,,,3.905,0.0002058837,94434.9,94434.9,94389.5,4.51732e+17,0.1336
8.0,3.0,50.01603,15588.666,-357.906,77.837,-27145.986,0.00034,0.00016,50.01974,212.348,,0.0,-0.00149,-0.00449,22.88585,34.22105,,,,,,3.96,0.000205414,94219.5,94219.5,94355.8,4.58094e+17,0.125621
8.0,3.0,50.01501,15588.721,-357.908,77.8371,-27145.985,-0.00014,-0.0001,50.0184,211.849,,0.0,-0.00153,-0.00453,22.88595,34.22003,,,,,,4.015,0.000205802,94397.3,94397.3,94322.6,4.64456e+17,0.132206
8.0,3.0,50.01558,15588.776,-357.906,77.838,-27145.986,0.00011,0.00063,50.01914,212.106,,0.0,-0.00148,-0.00449,22.88584,34.2206,,,,,,4.07,0.000205766,94380.9,94380.9,94289.8,4.70819e+17,0.131601
8.0,3.0,50.01539,15588.831,-357.907,77.83785,-27145.986,-0.00012,-0.00024,50.01879,211.857,,0.0,-0.00143,-0.00451,22.886,34.22041,,,,,,4.125,0.000205135,94091.4,94091.4,94257.4,4.77181e+17,0.120873
8.0,3.0,50.01433,15588.886,-357.906,77.837,-27145.986,4e-05,-0.00035,50.0174,211.3582,,0.0,-0.00142,-0.00452,22.88609,34.21935,,,,,,4.18,0.00020555,94282,94282,94225.4,4.83544e+17,0.127935
8.0,3.0,50.01503,15588.941,-357.907,77.83715,-27146,-1e-05,0.00025,50.01828,211.629,,0.0,-0.00144,-0.00454,22.88602,34.22006,,,,,,4.235,0.00020552,94268.1,94268.1,94193.8,4.89906e+17,0.127423
8.0,3.0,50.0154,15588.996,-357.906,77.837,-27146,-0.00023,4e-05,50.01862,211.583,,0.0,-0.00149,-0.00455,22.88587,34.22042,,,,,,4.29,0.000205033,94044.7,94044.7,94162.6,4.96269e+17,0.119146
8.0,3.0,50.01403,15589.051,-357.907,77.837,-27146,0.00019,-0.00057,50.01685,210.971,,0.0,-0.00146,-0.00452,22.88599,34.21905,,,,,,4.345,0.000205317,94175,94175,94131.7,5.02631e+17,0.12397
8.0,3.0,50.01482,15589.106,-357.906,77.836,-27145.987,-0.00023,9e-05,50.01786,211.306,,0.0,-0.00146,-0.00449,22.88593,34.21984,,,,,,4.4,0.000205316,94174.5,94174.5,94101.3,5.08993e+17,0.123955
8.0,3.0,50.01466,15589.161,-357.9069,77.837,-27145.984,-0.00028,-0.00012,50.01757,211.11,,0.0,-0.00147,-0.00449,22.88602,34.21968,,,,,,4.455,0.000204776,93926.9,93926.9,94071.1,5.15356e+17,0.11478
8.0,3.0,50.01355,15589.216,-357.907,77.837,-27145.986,0.00045,-4e-05,50.01609,210.521,,0.0,-0.0014,-0.00452,22.88579,34.21857,,,,,,4.51,0.000205234,94136.9,94136.9,94041.3,5.21718e+17,0.12256
8.0,3.0,50.01438,15589.271,-357.9069,77.838,-27145.987,7e-05,0.00022,50.01718,210.9363,,0.0,-0.00142,-0.00452,22.88574,34.2194,,,,,,4.565,0.00020497,94015.8,94015.8,94011.9,5.28081e+17,0.118075
8.0,3.0,50.01463,15589.326,-357.908,77.83701,-27145.987,-0.00026,0.00034,50.01735,210.808,,0.0,-0.00143,-0.00449,22.88581,34.21965,,,,,,4.62,0.000204522,93810.1,93810.1,93982.8,5.34443e+17,0.110453
8.0,3.0,50.01322,15589.381,-357.906,77.8379,-27146,0.00035,-0.00018,50.01554,210.19,,0.0,-0.00137,-0.00451,22.8861,34.21824,,,,,,4.675,0.00020505,94052.6,94052.6,93954,5.40805e+17,0.119435
8.0,3.0,50.01395,15589.436,-357.907,77.83701,-27145.986,0.0002,-7e-05,50.01648,210.526,,0.0,-0.00139,-0.00447,22.88587,34.21897,,,,,,4.73,0.000204894,93981.1,93981.1,93925.5,5.47168e+17,0.116788
8.0,3.0,50.01425,15589.491,-357.907,77.837,-27146,0.00012,0.00024,50.01676,210.486,,0.0,-0.00143,-0.00447,22.88602,34.21927,,,,,,4.785,0.000204307,93711.7,93711.7,93897.3,5.5353e+17,0.106806
8.0,3.0,50.01301,15589.546,-357.907,77.837,-27145.985,-8e-05,-0.00018,50.01513,209.878,,0.0,-0.00146,-0.00451,22.88599,34.21803,,,,,,4.84,0.000204804,93939.6,93939.6,93869.4,5.59893e+17,0.115251
8.0,3.0,50.01368,15589.601,-357.9061,77.83715,-27146,0.00036,-0.00033,50.01601,210.198,,0.0,-0.00141,-0.0045,22.88592,34.21871,,,,,,4.895,0.000204615,93853.1,93853.1,93841.9,5.66255e+17,0.112048
8.0,3.0,50.01394,15589.656,-357.907,77.838,-27145.987,4e-05,0.0001,50.01625,210.166,,0.0,-0.00141,-0.0045,22.886,34.21896,,,,,,4.95,0.000204319,93717.2,93717.2,93814.6,5.72618e+17,0.107012
8.0,3.0,50.01289,15589.711,-357.908,77.8371,-27146,-0.00053,-0.00025,50.01481,209.573,,0.0,-0.00139,-0.00449,22.88602,34.21791,,,,,,5.005,0.00020462,93855.1,93855.1,93787.6,5.7898e+17,0.112121
8.0,3.0,50.01341,15589.766,-357.906,77.837,-27145.986,0.00016,0.0001,50.01553,209.865,,0.0,-0.00146,-0.00448,22.88582,34.21843,,,,,,5.06,0.000204518,93808.4,93808.4,93760.8,5.85342e+17,0.110391
8.0,3.0,50.01361,15589.821,-357.907,77.837,-27145.986,0.00028,0.00037,50.01571,209.8441,,0.0,-0.00145,-0.00451,22.88617,34.21863,,,,,,5.115,0.000204118,93625.1,93625.1,93734.4,5.91705e+17,0.103601
8.0,3.0,50.01287,15589.876,-357.907,77.83799,-27145.986,-2e-05,0.00016,50.01464,209.342,,0.0,-0.00143,-0.00451,22.88594,34.21789,,,,,,5.17,0.00020434,93727,93727,93708.2,5.98067e+17,0.107373
8.0,3.0,50.01316,15589.931,-357.906,77.837,-27145.986,-6e-05,-3e-05,50.01506,209.533,,0.0,-0.00144,-0.00448,22.88596,34.21819,,,,,,5.225,0.0002044397,93772.5,93772.5,93682.3,6.0443e+17,0.109061
8.0,3.0,50.01353,15589.986,-357.907,77.837,-27145.986,0.00026,0.00021,50.01547,209.594,,0.0,-0.00145,-0.00451,22.88594,34.21855,,,,,,5.28,0.00020386,93506.7,93506.7,93656.6,6.10792e+17,0.0992133
8.0,3.0,50.01266,15590.041,-357.907,77.837,-27146,4e-05,9e-05,50.01426,209.075,,0.0,-0.00144,-0.00447,22.88613,34.21768,,,,,,5.335,0.00020404,93589.2,93589.2,93631.2,6.17154e+17,0.102269
8.0,3.0,50.01289,15590.096,-357.907,77.837,-27145.986,-9e-05,0.00019,50.01459,209.222,,0.0,-0.00142,-0.0045,22.88605,34.21791,,,,,,5.39,0.000204305,93710.6,93710.6,93606,6.23517e+17,0.106768
8.0,3.0,50.01347,15590.151,-357.907,77.83785,-27145.987,0.00017,0.00037,50.01525,209.343,,0.0,-0.00148,-0.00449,22.88612,34.2185,,,,,,5.445,0.000203869,93510.6,93510.6,93581.1,6.29879e+17,0.0993553
8.0,3.0,50.0126,15590.206,-357.907,77.838,-27145.987,-0.00013,9e-05,50.01407,208.862,,0.0,-0.00147,-0.00453,22.88598,34.21763,,,,,,5.5,0.000203879,93515.2,93515.2,93556.4,6.36242e+17,0.0995271
8.0,3.0,50.01281,15590.261,-357.906,77.8361,-27145.986,-9e-05,-0.00017,50.01434,208.958,,0.0,-0.00145,-0.00449,22.88591,34.21783,,,,,,5.555,0.000204116,93623.9,93623.9,93532,6.42604e+17,0.103555
8.0,3.0,50.01333,15590.316,-357.907,77.837,-27145.987,0.00022,-0.00011,50.01498,209.147,,0.0,-0.00141,-0.00451,22.88619,34.21835,,,,,,5.61,0.000203663,93416.5,93416.5,93507.8,6.48967e+17,0.0958709
8.0,3.0,50.0126,15590.371,-357.907,77.837,-27145.987,-0.00014,0.0,50.01393,208.655,,0.0,-0.00141,-0.00451,22.88607,34.21762,,,,,,5.665,0.000203754,93458,93458,93483.8,6.55329e+17,0.0974072
8.0,3.0,50.01247,15590.426,-357.906,77.837,-27145.987,-0.00012,8e-05,50.01379,208.635,,0.0,-0.00144,-0.00447,22.88616,34.2175,,,,,,5.72,0.00020403,93584.5,93584.5,93460.1,6.61691e+17,0.102096
8.0,3.0,50.01326,15590.481,-357.9069,77.83715,-27146,0.0002,8e-05,50.01476,208.903,,0.0,-0.00142,-0.00455,22.88616,34.21829,,,,,,5.775,0.000203475,93329.9,93329.9,93436.6,6.68054e+17,0.0926622
8.0,3.0,50.01266,15590.536,-357.907,77.837,-27145.987,-9e-05,-0.00028,50.01388,208.471,,0.0,-0.00146,-0.00452,22.88607,34.21768,,,,,,5.83,0.000203501,93341.9,93341.9,93413.3,6.74416e+17,0.0931076
8.0,3.0,50.01232,15590.591,-357.907,77.838,-27145.986,0.00025,9e-05,50.01345,208.325,,0.0,-0.00145,-0.00454,22.88594,34.21735,,,,,,5.885,0.000203837,93496.1,93496.1,93390.3,6.80779e+17,0.0988182
8.0,3.0,50.01324,15590.646,-357.907,77.838,-27145.987,3e-05,0.0003,50.01462,208.726,,0.0,-0.00139,-0.0045,22.88617,34.21826,,,,,,5.94,0.000203273,93237.4,93237.4,93367.4,6.87141e+17,0.0892344
8.0,3.0,50.01233,15590.701,-357.9069,77.83715,-27146,0.00023,-0.00049,50.01335,208.173,,0.0,-0.00146,-0.00454,22.88609,34.21735,,,,,,5.995,0.0002035513,93365,93365,93344.8,6.93503e+17,0.0939646
8.0,3.0,50.01189,15590.756,-357.906,77.837,-27145.986,-0.00013,2e-05,50.01285,208.069,,0.0,-0.00146,-0.00449,22.88606,34.21692,,,,,,6.05,0.000203767,93464.1,93464.1,93322.3,6.99866e+17,0.0976346
8.0,3.0,50.01303,15590.811,-357.906,77.837,-27146,5e-05,3e-05,50.0143,208.555,,0.0,-0.00146,-0.00453,22.88609,34.21806,,,,,,6.105,0.000203198,93203,93203,93300.1,7.06228e+17,0.0879619
8.0,3.0,50.01223,15590.866,-357.906,77.838,-27145.988,4e-05,-0.00038,50.01313,207.984,,0.0,-0.00145,-0.00449,22.88625,34.21725,,,,,,6.16,0.000203456,93321.5,93321.5,93278.1,7.12591e+17,0.0923497
8.0,3.0,50.01204,15590.921,-357.906,77.837,-27146,-6e-05,4e-05,50.01292,207.95,,0.0,-0.00148,-0.00446,22.88606,34.21706,,,,,,6.215,0.000203594,93384.5,93384.5,93256.3,7.18953e+17,0.094687
8.0,3.0,50.01301,15590.976,-357.907,77.837,-27145.985,-0.00015,0.0004,50.01413,208.322,,0.0,-0.00147,-0.00449,22.88613,34.21803,,,,,,6.27,0.000203051,93135.4,93135.4,93234.7,7.25316e+17,0.0854568
8.0,3.0,50.01197,15591.031,-357.906,77.83715,-27146,0.00014,-0.00045,50.01273,207.759,,0.0,-0.00146,-0.00452,22.88606,34.21699,,,,,,6.325,0.000203201,93204.2,93204.2,93213.3,7.31678e+17,0.0880042
8.0,3.0,50.01185,15591.086,-357.907,77.838,-27145.985,0.00012,9e-05,50.01259,207.725,,0.0,-0.00148,-0.0045,22.88605,34.21687,,,,,,6.38,0.000203395,93293.3,93293.3,93192.1,7.3804e+17,0.0913069
8.0,3.0,50.01304,15591.141,-357.906,77.837,-27146,-3e-05,8e-05,50.01405,208.15,,0.0,-0.00148,-0.00453,22.88622,34.21806,,,,,,6.435,0.000202672,92961.6,92961.6,93171.1,7.44403e+17,0.0790184
8.0,3.0,50.01214,15591.196,-357.906,77.837,-27145.986,1e-05,-0.00064,50.01277,207.552,,0.0,-0.00149,-0.00449,22.88628,34.21717,,,,,,6.49,0.000203167,93188.9,93188.9,93150.3,7.50765e+17,0.0874378
8.0,3.0,50.01135,15591.251,-357.906,77.837,-27145.986,0.00012,7e-05,50.01189,207.42,,0.0,-0.00144,-0.00449,22.88609,34.21637,,,,,,6.545,0.000203271,93236.6,93236.6,93129.7,7.57128e+17,0.0892045
8.0,3.0,50.01268,15591.306,-357.906,77.837,-27145.986,0.00024,0.00048,50.01353,207.909,,0.0,-0.00147,-0.00449,22.88627,34.2177,,,,,,6.6,0.00020277,93006.8,93006.8,93109.2,7.6349e+17,0.0806907
8.0,3.0,50.01181,15591.361,-357.907,77.837,-27146,-0.0001,-6e-05,50.01231,207.356,,0.0,-0.00143,-0.0045,22.88613,34.21683,,,,,,6.655,0.000203,93112,93112,93089,7.69852e+17,0.0845899
8.0,3.0,50.01152,15591.416,-357.906,77.837,-27145.986,0.00023,3e-05,50.01197,207.285,,0.0,-0.00144,-0.0045,22.88595,34.21654,,,,,,6.71,0.000203175,93192.6,93192.6,93068.9,7.76215e+17,0.0875745
8.0,3.0,50.01276,15591.471,-357.9061,77.83715,-27146,9e-05,0.00032,50.01349,207.707,,0.0,-0.00145,-0.00452,22.88611,34.21779,,,,,,6.765,0.000202622,92938.8,92938.8,93049,7.82577e+17,0.0781743
8.0,3.0,50.01121,15591.526,-357.906,77.837,-27145.986,-0.00011,0.00011,50.01148,206.9982,,0.0,-0.00145,-0.00452,22.88612,34.21623,,,,,,6.82,0.000202935,93082.3,93082.3,93029.3,7.8894e+17,0.0834895
8.0,3.0,50.0116,15591.581,-357.907,77.837,-27145.986,0.00023,-3e-05,50.01195,207.1344,,0.0,-0.00143,-0.00448,22.88642,34.21662,,,,,,6.875,0.000203079,93148.5,93148.5,93009.8,7.95302e+17,0.0859424
8.0,3.0,50.0124,15591.636,-357.908,77.837,-27145.986,-7e-05,8e-05,50.01298,207.48,,0.0,-0.00147,-0.00452,22.88611,34.21742,,,,,,6.93,0.0002026651,92958.6,92958.6,92990.4,8.01665e+17,0.0789052
8.0,3.0,50.0119,15591.691,-357.906,77.8379,-27145.986,-2e-05,-9e-05,50.01221,207.054,,0.0,-0.00142,-0.00452,22.88607,34.21693,,,,,,6.985,0.000202688,92969,92969,92971.2,8.08027e+17,0.079291
8.0,3.0,50.01145,15591.746,-357.906,77.838,-27145.987,-3e-05,-0.00045,50.01169,206.944,,0.0,-0.00159,-0.00445,22.88626,34.21647,,,,,,7.04,0.00020293,93080,93080,92952.2,8.14389e+17,0.0834028
8.0,3.0,50.01247,15591.801,-357.907,77.83715,-27146,0.00013,0.00022,50.01296,207.339,,0.0,-0.00151,-0.00446,22.88627,34.21749,,,,,,7.095,0.000202522,92892.7,92892.7,92933.4,8.20752e+17,0.0764653
8.0,3.0,50.01187,15591.856,-357.907,77.838,-27145.987,-0.00033,-0.00014,50.0121,206.9234,,0.0,-0.0015,-0.00445,22.88609,34.2169,,,,,,7.15,0.000202431,92851,92851,92914.7,8.27114e+17,0.0749212
8.0,3.0,50.01126,15591.911,-357.907,77.83715,-27146,0.00047,0.00042,50.01134,206.712,,0.0,-0.00144,-0.00453,22.8863,34.21628,,,,,,7.205,0.000202752,92998.4,92998.4,92896.2,8.33477e+17,0.0803807
8.0,3.0,50.01206,15591.966,-357.907,77.838,-27145.985,8e-05,0.00038,50.0124,207.107,,0.0,-0.00146,-0.00451,22.88625,34.21708,,,,,,7.26,0.000202456,92862.8,92862.8,92877.9,8.39839e+17,0.0753584
8.0,3.0,50.01216,15592.021,-357.906,77.8371,-27145.985,-9e-05,0.0001,50.01242,206.976,,0.0,-0.00142,-0.00449,22.88622,34.21719,,,,,,7.315,0.000202329,92804.4,92804.4,92859.7,8.46201e+17,0.0731921
8.0,3.0,50.01151,15592.076,-357.906,77.83701,-27145.986,-4e-05,-0.00012,50.0115,206.563,,0.0,-0.00147,-0.00447,22.88624,34.21653,,,,,,7.37,0.000202686,92968.1,92968.1,92841.7,8.52564e+17,0.0792576
8.0,3.0,50.01187,15592.131,-357.908,77.837,-27145.986,0.0001,-0.00016,50.01206,206.8748,,0.0,-0.00148,-0.00448,22.88624,34.21689,,,,,,7.425,0.000202349,92813.7,92813.7,92823.9,8.58926e+17,0.0735398
8.0,3.0,50.01228,15592.186,-357.907,77.837,-27145.987,-7e-05,0.0003,50.01244,206.83,,0.0,-0.0015,-0.00447,22.88635,34.2173,,,,,,7.48,0.000202137,92716.5,92716.5,92806.2,8.65289e+17,0.0699387
8.0,3.0,50.01122,15592.241,-357.9071,77.837,-27146,0.0004,0.00021,50.01111,206.404,,0.0,-0.00144,-0.0045,22.88639,34.21625,,,,,,7.535,0.000202563,92911.7,92911.7,92788.7,8.71651e+17,0.0771682
8.0,3.0,50.01181,15592.296,-357.906,77.83799,-27145.986,-0.00048,0.0001,50.0119,206.728,,0.0,-0.00145,-0.00452,22.88639,34.21683,,,,,,7.59,0.000202349,92813.5,92813.5,92771.3,8.78014e+17,0.0735314
8.0,3.0,50.01204,15592.351,-357.907,77.837,-27145.986,0.00018,-0.00018,50.01206,206.612,,0.0,-0.00146,-0.00446,22.88649,34.21706,,,,,,7.645,0.000201886,92601.3,92601.3,92754.1,8.84376e+17,0.0656683
8.0,3.0,50.01107,15592.406,-357.905,77.837,-27145.986,-0.00038,-0.0002,50.0108,206.172,,0.0,-0.00144,-0.00452,22.88629,34.21609,,,,,,7.7,0.000202348,92813.1,92813.1,92737,8.90738e+17,0.0735145
8.0,3.0,50.01207,15592.461,-357.908,77.83785,-27146,4e-05,0.0002,50.01212,206.654,,0.0,-0.00149,-0.00448,22.8861,34.21709,,,,,,7.755,0.000202237,92762,92762,92720.1,8.97101e+17,0.0716246
8.0,3.0,50.01171,15592.516,-357.907,77.83799,-27145.985,0.00043,-0.00015,50.01155,206.331,,0.0,-0.00153,-0.00448,22.88619,34.21673,,,,,,7.81,0.000201821,92571.2,92571.2,92703.4,9.03463e+17,0.0645548
8.0,3.0,50.01133,15592.571,-357.9061,77.837,-27146,-0.00032,0.0002,50.01105,206.138,,0.0,-0.0015,-0.0045,22.88632,34.21636,,,,,,7.865,0.000202316,92798.3,92798.3,92686.8,9.09826e+17,0.0729673
8.0,3.0,50.01217,15592.626,-357.907,77.837,-27145.986,0.00016,-0.00018,50.01216,206.564,,0.0,-0.00153,-0.00448,22.88638,34.21719,,,,,,7.92,0.0002021944,92742.7,92742.7,92670.3,9.16188e+17,0.0709065
8.0,3.0,50.01147,15592.681,-357.907,77.837,-27146,-6e-05,-0.00025,50.01114,206.068,,0.0,-0.00153,-0.00449,22.88612,34.2165,,,,,,7.975,0.000201666,92500.3,92500.3,92654,9.2255e+17,0.0619271
8.0,3.0,50.01133,15592.736,-357.907,77.83799,-27145.986,-0.00051,0.00021,50.01095,206.002,,0.0,-0.00149,-0.00448,22.88625,34.21635,,,,,,8.03,0.000202209,92749.1,92749.1,92637.8,9.28913e+17,0.0711466
8.0,3.0,50.01257,15592.791,-357.9061,77.837,-27145.987,0.00026,0.00029,50.01254,206.5365,,0.0,-0.00157,-0.00453,22.88626,34.21759,,,,,,8.085,0.000202028,92666.3,92666.3,92621.8,9.35275e+17,0.0680761
8.0,3.0,50.01189,15592.846,-357.906,77.837,-27145.987,-8e-05,-0.0004,50.01159,206.113,,0.0,-0.00157,-0.00445,22.8864,34.21692,,,,,,8.14,0.000201549,92446.8,92446.8,92605.9,9.41638e+17,0.0599464
8.0,3.0,50.01076,15592.901,-357.907,77.8379,-27146,7e-05,-6e-05,50.01017,205.667,,0.0,-0.00157,-0.00448,22.88649,34.21578,,,,,,8.195,0.00020214,92717.8,92717.8,92590.2,9.48e+17,0.0699848
8.0,3.0,50.01183,15592.956,-357.907,77.837,-27145.987,-8e-05,0.0003,50.01159,206.211,,0.0,-0.00161,-0.00454,22.88621,34.21685,,,,,,8.25,0.0002018734,92595.4,92595.4,92574.6,9.54363e+17,0.0654517
8.0,3.0,50.01167,15593.011,-357.907,77.8371,-27146,0.00026,-0.00041,50.01129,205.994,,0.0,-0.00155,-0.0045,22.88626,34.21669,,,,,,8.305,0.000201517,92432.1,92432.1,92559.2,9.60725e+17,0.0594016
8.0,3.0,50.01067,15593.066,-357.906,77.837,-27145.986,-4e-05,-1e-05,50.01,205.53,,0.0,-0.00158,-0.00451,22.88635,34.21569,,,,,,8.36,0.000202065,92683.5,92683.5,92543.8,9.67087e+17,0.0687135
8.0,3.0,50.01182,15593.121,-357.906,77.837,-27146,-7e-05,0.00066,50.01149,206.075,,0.0,-0.00154,-0.00445,22.88645,34.21684,,,,,,8.415,0.000201756,92541.6,92541.6,92528.6,9.7345e+17,0.0634589
8.0,3.0,50.01154,15593.176,-357.907,77.837,-27145.986,-2e-05,0.00014,50.01103,205.787,,0.0,-0.00153,-0.0045,22.88634,34.21656,,,,,,8.47,0.000201457,92404.4,92404.4,92513.6,9.79812e+17,0.0583728
8.0,3.0,50.01108,15593.231,-357.907,77.83715,-27145.986,-0.0001,-0.00034,50.0104,205.5307,,0.0,-0.00157,-0.00446,22.8863,34.2161,,,,,,8.525,0.000201835,92577.8,92577.8,92498.7,9.86175e+17,0.0648003
8.0,3.0,50.01187,15593.286,-357.907,77.837,-27145.987,-0.00014,0.00017,50.01149,205.998,,0.0,-0.00152,-0.00454,22.88625,34.21689,,,,,,8.58,0.000201623,92480.8,92480.8,92483.9,9.92537e+17,0.0612037
8.0,3.0,50.01157,15593.341,-357.9069,77.837,-27146,-6e-05,-0.00015,50.011,205.699,,0.0,-0.00154,-0.00446,22.88649,34.21659,,,,,,8.635,0.000201343,92352.1,92352.1,92469.2,9.98899e+17,0.0564385
8.0,3.0,50.0109,15593.396,-357.907,77.836,-27145.987,0.00017,-0.00073,50.01012,205.374,,0.0,-0.00148,-0.00446,22.88643,34.21592,,,,,,8.69,0.0002017491,92538.4,92538.4,92454.7,1.00526e+18,0.0633394
8.0,3.0,50.01182,15593.451,-357.905,77.8379,-27146,0.00013,0.00032,50.01134,205.848,,0.0,-0.00152,-0.00446,22.8863,34.21684,,,,,,8.745,0.000201559,92451.1,92451.1,92440.3,1.01162e+18,0.0601063
8.0,3.0,50.01109,15593.506,-357.907,77.838,-27145.987,-9e-05,-0.00018,50.01033,205.402,,0.0,-0.00151,-0.00449,22.88646,34.21611,,,,,,8.8,0.000201289,92327.3,92327.3,92426.1,1.01799e+18,0.0555197
8.0,3.0,50.01105,15593.561,-357.9061,77.83715,-27146,-5e-05,-0.00037,50.01025,205.3321,,0.0,-0.00148,-0.00447,22.8866,34.21608,,,,,,8.855,0.00020155,92447.1,92447.1,92411.9,1.02435e+18,0.0599576
8.0,3.0,50.01205,15593.616,-357.906,77.838,-27145.986,-0.00022,0.00024,50.01154,205.788,,0.0,-0.00154,-0.00451,22.88643,34.21707,,,,,,8.91,0.000201554,92448.9,92448.9,92397.9,1.03071e+18,0.0600239
8.0,3.0,50.01174,15593.671,-357.908,77.837,-27146,-0.00046,0.0004,50.01105,205.505,,0.0,-0.00153,-0.00451,22.88636,34.21677,,,,,,8.965,0.00020116,92268.3,92268.3,92384,1.03707e+18,0.0533335
8.0,3.0,50.01105,15593.726,-357.905,77.83799,-27146,0.00024,-0.0002,50.01015,205.175,,0.0,-0.00155,-0.00449,22.88626,34.21608,,,,,,9.02,0.000201434,92393.8,92393.8,92370.2,1.04344e+18,0.0579806
8.0,3.0,50.01151,15593.781,-357.9061,77.83715,-27146,1e-05,0.0001,50.01081,205.49,,0.0,-0.00152,-0.00451,22.88658,34.21653,,,,,,9.075,0.00020156,92451.8,92451.8,92356.6,1.0498e+18,0.0601316
8.0,3.0,50.01153,15593.836,-357.907,77.837,-27145.986,-0.00033,1e-05,50.01077,205.402,,0.0,-0.00154,-0.0045,22.88641,34.21655,,,,,,9.13,0.000201005,92197.3,92197.3,92343.1,1.05616e+18,0.0507014
8.0,3.0,50.01082,15593.891,-357.906,77.837,-27145.986,0.00037,-0.00032,50.00979,204.971,,0.0,-0.00145,-0.00447,22.8867,34.21584,,,,,,9.185,0.000201346,92353.6,92353.6,92329.7,1.06252e+18,0.0564934
8.0,3.0,50.01138,15593.946,-357.905,77.837,-27145.986,-0.00028,-0.0003,50.01056,205.311,,0.0,-0.00151,-0.00451,22.88643,34.2164,,,,,,9.24,0.000201512,92429.8,92429.8,92316.4,1.06889e+18,0.0593137
8.0,3.0,50.01168,15594.001,-357.907,77.838,-27146,0.00023,4e-05,50.01089,205.354,,0.0,-0.00148,-0.00449,22.88643,34.2167,,,,,,9.295,0.000200976,92183.6,92183.6,92303.2,1.07525e+18,0.0501942
8.0,3.0,50.01098,15594.056,-357.907,77.837,-27145.987,-0.00035,-0.00047,50.00988,204.879,,0.0,-0.00148,-0.00452,22.88637,34.216,,,,,,9.35,0.000201217,92294.4,92294.4,92290.2,1.08161e+18,0.0542999
8.0,3.0,50.01134,15594.111,-357.9069,77.83785,-27146,0.00016,-2e-05,50.01043,205.164,,0.0,-0.00149,-0.00447,22.88649,34.21636,,,,,,9.405,0.000201372,92365.6,92365.6,92277.2,1.08797e+18,0.0569352
8.0,3.0,50.01184,15594.166,-357.906,77.837,-27145.987,0.00051,0.00027,50.01102,205.307,,0.0,-0.00148,-0.00444,22.88642,34.21686,,,,,,9.46,0.000200834,92118.5,92118.5,92264.4,1.09434e+18,0.0477818
8.0,3.0,50.01103,15594.221,-357.907,77.83715,-27145.986,-0.00018,0.0005,50.00988,204.799,,0.0,-0.00149,-0.00452,22.88648,34.21605,,,,,,,,,,,,
8.0,3.0,50.01107,15594.276,-357.907,77.837,-27145.987,-1e-05,3e-05,50.01,204.9226,,0.0,-0.0015,-0.00447,22.88644,34.21609,,,,,,,,,,,,
8.0,3.0,50.01188,15594.331,-357.907,77.837,-27146,0.00032,0.00049,50.01103,205.255,,0.0,-0.00146,-0.00451,22.88654,34.2169,,,,,,,,,,,,
8.0,3.0,50.01123,15594.386,-357.907,77.837,-27145.985,-0.00037,-0.00013,50.01004,204.723,,0.0,-0.00152,-0.00453,22.88652,34.21626,,,,,,,,,,,,
8.0,3.0,50.01097,15594.441,-357.907,77.837,-27146,-2e-05,4e-05,50.00982,204.791,,0.0,-0.00151,-0.00456,22.88657,34.21599,,,,,,,,,,,,
8.0,3.0,50.01187,15594.496,-357.907,77.838,-27145.986,0.00023,2e-05,50.01097,205.177,,0.0,-0.0015,-0.00451,22.88641,34.21689,,,,,,,,,,,,
8.0,3.0,50.01112,15594.551,-357.906,77.837,-27146,-0.0002,0.00032,50.00987,204.643,,0.0,-0.00149,-0.00451,22.8866,34.21614,,,,,,,,,,,,
8.0,3.0,50.01088,15594.606,-357.907,77.837,-27145.986,-0.00038,-0.00016,50.00964,204.643,,0.0,-0.00152,-0.00451,22.8865,34.21591,,,,,,,,,,,,
8.0,3.0,50.0122,15594.661,-357.907,77.8371,-27145.985,0.00036,0.0001,50.01122,205.053,,0.0,-0.00151,-0.00454,22.88638,34.21723,,,,,,,,,,,,
8.0,3.0,50.01119,15594.716,-357.906,77.837,-27145.987,-0.00024,-0.00023,50.00985,204.492,,0.0,-0.00153,-0.00451,22.88658,34.21622,,,,,,,,,,,,
8.0,3.0,50.01088,15594.771,-357.9079,77.837,-27146,8e-05,-1e-05,50.00958,204.5572,,0.0,-0.00148,-0.00451,22.88662,34.2159,,,,,,,,,,,,
8.0,3.0,50.01188,15594.826,-357.906,77.837,-27145.987,-1e-05,-0.00045,50.01083,204.939,,0.0,-0.00153,-0.00454,22.88654,34.2169,,,,,,,,,,,,
8.0,3.0,50.01075,15594.881,-357.906,77.8371,-27146,-0.00017,8e-05,50.0093,204.329,,0.0,-0.00155,-0.00457,22.88661,34.21577,,,,,,,,,,,,
8.0,3.0,50.011,15594.936,-357.907,77.837,-27145.986,-0.00015,0.00044,50.00967,204.514,,0.0,-0.0015,-0.00458,22.88652,34.21602,,,,,,,,,,,,
8.0,3.0,50.01184,15594.991,-357.9061,77.837,-27145.985,-8e-05,-7e-05,50.01071,204.821,,0.0,-0.00154,-0.00457,22.88657,34.21687,,,,,,,,,,,,
8.0,3.0,50.01055,15595.046,-357.907,77.837,-27145.987,-1e-05,-8e-05,50.00903,204.213,,0.0,-0.00147,-0.00454,22.88641,34.21558,,,,,,,,,,,,
8.0,3.0,50.01089,15595.101,-357.906,77.837,-27145.987,-0.00027,0.0003,50.00951,204.426,,0.0,-0.00157,-0.00454,22.88683,34.21592,,,,,,,,,,,,
8.0,3.0,50.01163,15595.156,-357.906,77.837,-27145.986,-0.00015,0.00028,50.0104,204.669,,0.0,-0.00152,-0.00451,22.8866,34.21665,,,,,,,,,,,,
8.0,3.0,50.01094,15595.211,-357.9069,77.83715,-27146,0.00028,-0.00072,50.00942,204.228,,0.0,-0.00153,-0.00449,22.88658,34.21596,,,,,,,,,,,,
8.0,3.0,50.01096,15595.266,-357.907,77.838,-27146,0.0001,-0.00012,50.00952,204.336,,0.0,-0.00153,-0.00451,22.8865,34.21599,,,,,,,,,,,,
8.0,3.0,50.01179,15595.321,-357.906,77.83785,-27146,-1e-05,0.0004,50.01051,204.593,,0.0,-0.00146,-0.00452,22.88671,34.21681,,,,,,,,,,,,
8.0,3.0,50.01092,15595.376,-357.906,77.837,-27145.986,-0.00025,-0.00063,50.0093,204.075,,0.0,-0.00148,-0.00452,22.88667,34.21594,,,,,,,,,,,,
8.0,3.0,50.01104,15595.431,-357.907,77.83785,-27145.984,0.00024,-0.0002,50.00951,204.196,,0.0,-0.00148,-0.0045,22.88659,34.21606,,,,,,,,,,,,
8.0,3.0,50.01152,15595.486,-357.907,77.838,-27145.985,-0.00049,3e-05,50.01014,204.445,,0.0,-0.00147,-0.00447,22.88666,34.21654,,,,,,,,,,,,
8.0,3.0,50.01108,15595.541,-357.906,77.8369,-27145.986,7e-05,-0.0002,50.00948,204.093,,0.0,-0.00148,-0.00454,22.88653,34.2161,,,,,,,,,,,,
8.0,3.0,50.01081,15595.596,-357.907,77.838,-27145.985,0.00011,-0.00013,50.00917,204.027,,0.0,-0.00146,-0.00454,22.88644,34.21584,,,,,,,,,,,,
8.0,3.0,50.0115,15595.651,-357.9069,77.837,-27145.986,-0.00037,-2e-05,50.01005,204.319,,0.0,-0.00154,-0.00449,22.88659,34.21652,,,,,,,,,,,,
8.0,3.0,50.01112,15595.706,-357.906,77.837,-27145.986,0.0002,-0.0001,50.00951,204.072,,0.0,-0.00154,-0.00452,22.88665,34.21614,,,,,,,,,,,,
8.0,3.0,50.01094,15595.761,-357.906,77.8371,-27146,0.00025,0.00017,50.00924,203.942,,0.0,-0.00155,-0.00446,22.88666,34.21596,,,,,,,,,,,,
8.0,3.0,50.01141,15595.816,-357.906,77.83799,-27145.986,-0.00024,7e-05,50.00989,204.23,,0.0,-0.00159,-0.00451,22.88655,34.21643,,,,,,,,,,,,
8.0,3.0,50.01101,15595.871,-357.907,77.837,-27145.987,1e-05,-0.00014,50.0093,203.932,,0.0,-0.00148,-0.00448,22.88674,34.21603,,,,,,,,,,,,
8.0,3.0,50.01053,15595.926,-357.906,77.838,-27145.987,-0.00014,-2e-05,50.00869,203.718,,0.0,-0.00144,-0.00448,22.88658,34.21555,,,,,,,,,,,,
8.0,3.0,50.01126,15595.981,-357.906,77.8371,-27145.987,-7e-05,0.00023,50.00966,204.096,,0.0,-0.00148,-0.00448,22.88643,34.21628,,,,,,,,,,,,
8.0,3.0,50.01143,15596.036,-357.907,77.837,-27145.986,0.00023,0.00019,50.00974,203.956,,0.0,-0.00148,-0.0045,22.88658,34.21645,,,,,,,,,,,,
8.0,3.0,50.01031,15596.091,-357.9061,77.83715,-27145.985,-0.00012,-0.00028,50.00836,203.542,,0.0,-0.00143,-0.00452,22.88661,34.21533,,,,,,,,,,,,
8.0,3.0,50.01143,15596.146,-357.905,77.838,-27145.986,0.00025,-0.00021,50.0098,204.047,,0.0,-0.00151,-0.00448,22.88675,34.21645,,,,,,,,,,,,
8.0,3.0,50.01129,15596.201,-357.9069,77.837,-27145.987,0.00034,-0.00026,50.00953,203.853,,0.0,-0.00145,-0.00452,22.88666,34.21631,,,,,,,,,,,,
8.0,3.0,50.01043,15596.256,-357.907,77.837,-27145.987,-0.00033,-0.0002,50.00848,203.554,,0.0,-0.00148,-0.0045,22.88675,34.21545,,,,,,,,,,,,
8.0,3.0,50.01183,15596.311,-357.907,77.83715,-27146,-1e-05,0.00026,50.01021,204.0639,,0.0,-0.00149,-0.00455,22.8868,34.21686,,,,,,,,,,,,
8.0,3.0,50.01131,15596.366,-357.906,77.838,-27145.986,-0.0003,0.0002,50.0095,203.757,,0.0,-0.00155,-0.0045,22.88661,34.21634,,,,,,,,,,,,
8.0,3.0,50.01035,15596.421,-357.9061,77.83615,-27145.986,8e-05,-6e-05,50.00829,203.381,,0.0,-0.0015,-0.00448,22.88662,34.21537,,,,,,,,,,,,
8.0,3.0,50.01141,15596.476,-357.906,77.837,-27145.987,0.00015,-0.00025,50.00969,203.901,,0.0,-0.00149,-0.00454,22.88673,34.21643,,,,,,,,,,,,
8.0,3.0,50.01121,15596.531,-357.907,77.837,-27146,-7e-05,-0.0002,50.00931,203.618,,0.0,-0.00152,-0.00452,22.88675,34.21624,,,,,,,,,,,,
8.0,3.0,50.01033,15596.586,-357.907,77.837,-27145.986,-0.00017,-0.00072,50.00822,203.3025,,0.0,-0.00152,-0.00456,22.88679,34.21535,,,,,,,,,,,,
8.0,3.0,50.01141,15596.641,-357.9061,77.83715,-27146,0.00012,-0.00012,50.00964,203.839,,0.0,-0.00158,-0.00455,22.88678,34.21643,,,,,,,,,,,,
8.0,3.0,50.01119,15596.696,-357.906,77.838,-27145.986,0.00016,0.00013,50.00923,203.544,,0.0,-0.00157,-0.0046,22.88663,34.21621,,,,,,,,,,,,
8.0,4.0,49.69576,15596.751,-357.906,77.83785,-27145.985,-0.00026,-0.00025,49.6796,181.4659,,0.0,-0.0015,-0.00458,22.88669,33.90078,,,,,,,,,,,,
8.0,4.0,48.87509,15596.806,-357.908,77.837,-27145.984,0.00037,0.0,48.83516,144.529,,0.0,-0.00153,-0.00455,22.88666,33.08011,,,,,,,,,,,,
8.0,4.0,47.73921,15596.861,-357.907,77.8361,-27145.986,0.00024,0.00022,47.67564,107.795,,0.0,-0.00147,-0.00454,22.88664,31.94423,,,,,,,,,,,,
8.0,4.0,46.42801,15596.916,-357.907,77.837,-27145.987,6e-05,0.00028,46.34636,79.7012,,0.0,-0.00151,-0.00454,22.88668,30.63303,,,,,,,,,,,,
8.0,4.0,45.03184,15596.971,-357.906,77.837,-27146,4e-05,0.00016,44.93912,62.50475,,0.0,-0.00152,-0.0045,22.88684,29.23686,,,,,,,,,,,,
8.0,4.0,43.60007,15597.026,-357.908,77.837,-27145.987,-6e-05,0.00041,43.50046,51.78516,,0.0,-0.00154,-0.00452,22.88677,27.8051,,,,,,,,,,,,
8.0,4.0,42.16037,15597.081,-357.906,77.837,-27145.986,-9e-05,0.00073,42.05598,44.36879,,0.0,-0.00152,-0.0045,22.88683,26.36539,,,,,,,,,,,,
8.0,4.0,40.72473,15597.136,-357.907,77.838,-27145.985,0.00042,0.00041,40.61672,38.73763,,0.0,-0.00148,-0.00455,22.88674,24.92975,,,,,,,,,,,,
8.0,4.0,39.29458,15597.191,-357.906,77.837,-27146,-0.0003,-5e-05,39.18307,33.30233,,0.0,-0.00152,-0.00452,22.88673,23.4996,,,,,,,,,,,,
8.0,4.0,37.86933,15597.246,-357.907,77.83799,-27146,-0.00012,-0.0002,37.75471,28.45748,,0.0,-0.00154,-0.00455,22.88657,22.07436,,,,,,,,,,,,
8.0,4.0,36.45175,15597.301,-357.906,77.837,-27146,-0.00015,0.00013,36.33442,24.25558,,0.0,-0.00152,-0.00455,22.88676,20.65677,,,,,,,,,,,,
8.0,4.0,35.03701,15597.356,-357.906,77.838,-27145.987,-0.00017,-0.00021,34.91685,19.84677,,0.0,-0.0015,-0.00455,22.88675,19.24204,,,,,,,,,,,,
8.0,4.0,33.62594,15597.411,-357.9061,77.837,-27146,0.00017,-2e-05,33.50303,15.59187,,0.0,-0.00148,-0.0046,22.88661,17.83096,,,,,,,,,,,,
8.0,4.0,32.21948,15597.466,-357.908,77.83799,-27145.985,-8e-05,0.00041,32.0941,11.73281,,0.0,-0.00148,-0.00456,22.88681,16.42451,,,,,,,,,,,,
8.0,4.0,30.81417,15597.521,-357.906,77.837,-27145.985,-0.00011,0.00032,30.68623,7.76835,,0.0,-0.00152,-0.00454,22.88673,15.0192,,,,,,,,,,,,
8.0,4.0,29.41057,15597.576,-357.906,77.838,-27145.987,0.00012,0.00067,29.2802,3.99475,,0.0,-0.00149,-0.00457,22.88667,13.61559,,,,,,,,,,,,
8.0,4.0,28.0107,15597.631,-357.9078,77.83785,-27146,-0.00026,0.00072,27.87812,0.55808,,0.0,-0.00154,-0.00456,22.8869,12.21573,,,,,,,,,,,,
8.0,4.0,26.61048,15597.686,-357.907,77.837,-27145.985,5e-05,0.00019,26.4773,-0.37095,,0.0,-0.00146,-0.00456,22.8867,10.8155,,,,,,,,,,,,
8.0,4.0,25.21091,15597.741,-357.9069,77.83685,-27146,0.00013,-0.00041,25.07767,-0.46162,,0.0,-0.00147,-0.00457,22.88674,9.41593,,,,,,,,,,,,
8.0,4.0,23.81418,15597.796,-357.907,77.837,-27145.986,-0.00038,0.00027,23.68085,-0.60497,,0.0,-0.00151,-0.00458,22.88685,8.0192,,,,,,,,,,,,
8.0,4.0,22.41991,15597.851,-357.906,77.837,-27145.986,-5e-05,0.0001,22.28648,-0.754,,0.0,-0.00154,-0.00454,22.88698,6.62493,,,,,,,,,,,,
8.0,4.0,21.02409,15597.906,-357.907,77.838,-27145.987,7e-05,6e-05,20.89058,-0.89861,,0.0,-0.00147,-0.00456,22.88672,5.22912,,,,,,,,,,,,
8.0,4.0,19.6316,15597.961,-357.906,77.837,-27145.987,0.00026,-1e-05,19.49798,-1.04943,,0.0,-0.00153,-0.00455,22.88695,3.83662,,,,,,,,,,,,
8.0,4.0,18.23991,15598.016,-357.907,77.838,-27145.988,-0.00063,0.00052,18.1062,-1.18896,,0.0,-0.00143,-0.00454,22.8869,2.44493,,,,,,,,,,,,
8.0,4.0,16.84692,15598.071,-357.906,77.837,-27146,-0.00022,-0.0002,16.71312,-1.33387,,0.0,-0.0015,-0.00453,22.88692,1.05194,,,,,,,,,,,,
8.0,4.0,15.45693,15598.126,-357.906,77.837,-27145.986,1e-05,0.00014,15.32304,-1.47919,,0.0,-0.00144,-0.00455,22.88687,-0.33804,,,,,,,,,,,,
8.0,4.0,14.06839,15598.181,-357.908,77.8371,-27145.986,-0.00018,0.0005,13.9344,-1.62526,,0.0,-0.00148,-0.00451,22.88687,-1.72659,,,,,,,,,,,,
8.0,4.0,12.67801,15598.236,-357.907,77.83701,-27145.986,-4e-05,6e-05,12.54393,-1.77511,,0.0,-0.00151,-0.00458,22.88677,-3.11697,,,,,,,,,,,,
8.0,4.0,11.28962,15598.291,-357.906,77.837,-27145.986,-2e-05,-3e-05,11.15545,-1.91815,,0.0,-0.00148,-0.00453,22.88703,-4.50536,,,,,,,,,,,,
8.0,4.0,9.90382,15598.346,-357.907,77.838,-27145.986,-0.0001,0.00062,9.76955,-2.05816,,0.0,-0.00155,-0.00454,22.88688,-5.89116,,,,,,,,,,,,
8.0,4.0,8.5163,15598.401,-357.906,77.837,-27145.986,-0.00066,0.00018,8.38194,-2.21647,,0.0,-0.0015,-0.00458,22.88692,-7.27867,,,,,,,,,,,,
8.0,4.0,7.13182,15598.456,-357.907,77.837,-27145.987,-0.00035,7e-05,6.99738,-2.3438,,0.0,-0.00151,-0.00453,22.88676,-8.66315,,,,,,,,,,,,
8.0,4.0,5.74896,15598.511,-357.907,77.83715,-27145.986,0.00032,0.00071,5.61442,-2.48433,,0.0,-0.00142,-0.00457,22.88674,-10.04602,,,,,,,,,,,,
8.0,4.0,4.36507,15598.566,-357.907,77.837,-27145.986,-0.00085,4e-05,4.23043,-2.64235,,0.0,-0.00148,-0.00455,22.8868,-11.42991,,,,,,,,,,,,
8.0,4.0,2.98455,15598.621,-357.907,77.837,-27146,0.00048,0.00044,2.84983,-2.76867,,0.0,-0.0015,-0.00454,22.88696,-12.81043,,,,,,,,,,,,
8.0,4.0,1.60731,15598.676,-357.906,77.837,-27145.986,-0.00035,3e-05,1.4725,-2.91161,,0.0,-0.00151,-0.00455,22.88689,-14.18767,,,,,,,,,,,,
8.0,4.0,0.43124,15598.731,-357.9069,77.837,-27146,0.00022,8e-05,0.29635,-3.02965,,0.0,-0.00152,-0.00454,22.88688,-15.36373,,,,,,,,,,,,
8.0,4.0,0.21882,15598.751,-357.906,77.837,-27146,0.00024,0.00026,0.08391,-3.05977,,0.0,-0.00149,-0.0046,22.88676,-15.57615,,,,,,,,,,,,