File: dataset_example/processed_data/ForceRelax_example/data/data_1_Measurements/GMM Fitting Results/data_1_6_GMM Fit.csv
Index [#],Phase [#],Displacement [um],Time [s],Pos X [um],Pos Y [um],Pos Z [um],Piezo X [um],Piezo Y [um],Piezo Z [um],Force A [uN],Force B [uN],Gripper [V],Voltage A [V],Voltage B [V],Temperature [oC],Sample Displacement [um],Filtered time [uN},Filtered force [uN],SG Force [uN],Est Force 2nd derivative,Filtered displacement [um],Sel Time [s],Sel Force [N],Sel Modulus Uncorrected [Pa],Sel Modulus Corrected [Pa],Sel Modulus GMM Fit [Pa],Sel Time Normalised [s m-2],Sel Force Normalised []
5.0,2.0,0.00786,15519.6,-1357.907,-422.167,-27140.015,0.00021,0.00086,-0.072,-0.14391,,0.0,-0.00151,-0.00457,22.87817,3.46148,15519.6,-0.14391,-0.149849,0.000314793,-0.072,0.0,0.000288937,135518,135518,137419,0.0,1.0
5.0,2.0,0.51069,15519.6,-1357.91,-422.1669,-27140,-0.0002,6e-05,0.43084,-0.11287,,0.0,-0.00152,-0.00455,22.87809,3.96431,15519.6,-0.11287,-0.10454,0.000314793,0.43084,0.055,0.000277691,130244,130244,129779,6554429569657133.0,0.837256
5.0,2.0,1.47552,15519.7,-1357.907,-422.166,-27140,0.00018,-0.00015,1.39574,-0.01673,,0.0,-0.00149,-0.00458,22.87836,4.92914,15519.7,-0.01673,-0.0201689,0.000189867,1.39574,0.11,0.000265949,124736,124736,124720,1.31089e+16,0.667319
5.0,2.0,2.69475,15519.7,-1357.91,-422.1661,-27140,-0.00013,0.00016,2.61503,0.08763,,0.0,-0.00145,-0.00457,22.87825,6.14837,15519.7,0.08763,0.0867572,9.56221e-05,2.61503,0.165,0.000258199,121102,121102,121337,1.96633e+16,0.555178
5.0,2.0,4.06419,15519.8,-1357.907,-422.167,-27140.018,-0.00019,-0.00043,3.98455,0.19707,,0.0,-0.0015,-0.0046,22.87826,7.51782,15519.8,0.19707,0.204028,3.95699e-05,3.98455,0.22,0.000253059,118691,118691,119041,2.62177e+16,0.480785
5.0,2.0,5.48439,15519.9,-1357.906,-422.167,-27140.018,-0.00018,-0.00034,5.40483,0.3273,,0.0,-0.00147,-0.00454,22.87827,8.93801,15519.9,0.3273,0.326841,-7.18133e-05,5.40483,0.275,0.000250423,117454,117454,117453,3.27721e+16,0.442637
5.0,2.0,6.91559,15519.9,-1357.91,-422.166,-27140.018,-7e-05,0.0,6.83611,0.44951,,0.0,-0.00151,-0.00456,22.87826,10.36921,15519.9,0.44951,0.441845,-2.08969e-05,6.83611,0.33,0.000248231,116427,116427,116329,3.93266e+16,0.410927
5.0,2.0,8.33959,15520,-1357.91,-422.1661,-27140.017,-0.00023,-0.00058,8.26016,0.542,,0.0,-0.00149,-0.00458,22.87835,11.79321,15520,0.542,0.551638,-1.38278e-05,8.26016,0.385,0.000245883,115325,115325,115508,4.5881e+16,0.376944
5.0,2.0,9.75921,15520,-1357.906,-422.167,-27140.019,0.0004,-0.00051,9.67987,0.66592,,0.0,-0.00149,-0.00458,22.87818,13.21283,15520,0.66592,0.660333,-3.07239e-05,9.67987,0.44,0.000244974,114899,114899,114889,5.24354e+16,0.363792
5.0,2.0,11.17267,15520.1,-1357.907,-422.167,-27140,-0.00036,-0.00021,11.09339,0.77228,,0.0,-0.00152,-0.00453,22.87828,14.62629,15520.1,0.77228,0.765906,-0.000147112,11.09339,0.495,0.000244269,114568,114568,114404,5.89899e+16,0.353577
5.0,2.0,12.5783,15520.1,-1357.906,-422.167,-27140.02,-0.00059,-0.00012,12.49907,0.8445,,0.0,-0.00153,-0.00453,22.87828,16.03192,15520.1,0.8445,0.854631,5.62435e-06,12.49907,0.55,0.000242919,113935,113935,114010,6.55443e+16,0.334054
5.0,2.0,13.9806,15520.2,-1357.907,-422.1661,-27140.019,0.00033,-0.00019,13.90143,0.94648,,0.0,-0.00149,-0.00451,22.87842,17.43422,15520.2,0.94648,0.9473,-1.53097e-05,13.90143,0.605,0.000242575,113773,113773,113679,7.20987e+16,0.329062
5.0,2.0,15.3803,15520.2,-1357.91,-422.166,-27140.02,0.00013,2e-05,15.30121,1.05301,,0.0,-0.00152,-0.00453,22.87832,18.83392,15520.2,1.05301,1.0429,-6.51935e-05,15.30121,0.66,0.000241995,113502,113502,113391,7.86532e+16,0.320679
5.0,2.0,16.77413,15520.3,-1357.907,-422.167,-27140,-0.00023,5e-05,16.69508,1.11393,,0.0,-0.00152,-0.00455,22.87841,20.22776,15520.3,1.11393,1.13222,-1.52372e-05,16.69508,0.715,0.000240962,113017,113017,113136,8.52076e+16,0.305726
5.0,2.0,18.16745,15520.3,-1357.906,-422.166,-27140.02,0.00012,-0.0002,18.08846,1.22693,,0.0,-0.0016,-0.00458,22.8785,21.62107,15520.3,1.22693,1.22608,-0.000177745,18.08846,0.77,0.000240874,112975,112975,112904,9.1762e+16,0.304446
5.0,2.0,19.55812,15520.4,-1357.907,-422.1661,-27140,0.00044,-0.00044,19.47919,1.31508,,0.0,-0.00154,-0.00452,22.87842,23.01174,15520.4,1.31508,1.29983,-0.000170722,19.47919,0.825,0.00024047,112786,112786,112691,9.83164e+16,0.298607
5.0,2.0,20.94589,15520.5,-1357.906,-422.167,-27140.021,9e-05,-0.00045,20.86698,1.34667,,0.0,-0.00154,-0.00461,22.87825,24.39951,15520.5,1.34667,1.34896,0.000212159,20.86698,0.88,0.000239499,112331,112331,112493,1.04871e+17,0.284557
5.0,2.0,22.33254,15520.5,-1357.91,-422.167,-27140.021,-0.00026,0.00014,22.25368,1.4218,,0.0,-0.00151,-0.00459,22.87821,25.78616,15520.5,1.4218,1.42482,-0.000411998,22.25368,0.935,0.000239531,112346,112346,112306,1.11425e+17,0.285017
5.0,2.0,23.71874,15520.6,-1357.906,-422.167,-27140.022,0.00027,-0.00023,23.6399,1.45336,,0.0,-0.00151,-0.00459,22.87838,27.17236,15520.6,1.45336,1.45855,0.000213596,23.6399,0.99,0.000239216,112198,112198,112130,1.1798e+17,0.280453
5.0,2.0,25.10092,15520.6,-1357.91,-422.167,-27140,0.00024,-0.00023,25.02212,1.50434,,0.0,-0.00151,-0.00459,22.87834,28.55454,15520.6,1.50434,1.47242,0.00549783,25.02212,1.045,0.000238251,111745,111745,111964,1.24534e+17,0.266493
5.0,2.0,26.48348,15520.7,-1357.906,-422.166,-27140.022,-0.00053,-0.00019,26.40507,2.12412,,0.0,-0.00148,-0.00455,22.87825,29.9371,15520.7,2.12412,2.20067,0.054136,26.40507,1.1,0.000238359,111796,111796,111805,1.31089e+17,0.268053
5.0,2.0,27.8623,15520.7,-1357.906,-422.167,-27140.022,0.00028,-7e-05,27.78866,9.54229,,0.0,-0.00146,-0.00452,22.87832,31.31592,15520.7,9.54229,9.43553,0.0521983,27.78866,1.155,0.000238144,111695,111695,111654,1.37643e+17,0.264949
5.0,2.0,29.23777,15520.8,-1357.906,-422.167,-27140.022,-0.00045,-0.00025,29.17282,23.03781,,0.0,-0.00154,-0.00453,22.87826,32.69139,15520.8,23.03781,23.1857,0.0183403,29.17282,1.21,0.000237338,111317,111317,111510,1.44197e+17,0.253276
5.0,2.0,30.61559,15520.8,-1357.906,-422.166,-27140.023,-0.00046,0.00022,30.56096,39.07454,,0.0,-0.00145,-0.00456,22.87839,34.06921,15520.8,39.07454,39.0111,0.00166821,30.56096,1.265,0.000237468,111378,111378,111372,1.50752e+17,0.255158
5.0,2.0,31.99403,15520.9,-1357.906,-422.167,-27140.022,-0.00018,-0.00018,31.94974,55.14079,,0.0,-0.00146,-0.00454,22.87847,35.44765,15520.9,55.14079,55.1053,0.0106394,31.94974,1.32,0.000237233,111268,111268,111239,1.57306e+17,0.251757
5.0,2.0,33.36992,15521,-1357.91,-422.167,-27140.023,5e-05,-0.00039,33.33668,72.31687,,0.0,-0.00147,-0.00455,22.87843,36.82354,15521,72.31687,72.4796,0.00605445,33.33668,1.375,0.000236551,110948,110948,111112,1.63861e+17,0.241896
5.0,2.0,34.74646,15521,-1357.907,-422.167,-27140.023,-0.0002,0.00014,34.72503,90.66342,,0.0,-0.00149,-0.00457,22.87846,38.20008,15521,90.66342,90.5925,-0.00263413,34.72503,1.43,0.000236781,111056,111056,110991,1.70415e+17,0.245215
5.0,2.0,36.12352,15521.1,-1357.91,-422.167,-27140,-5e-05,-7e-05,36.11358,108.519,,0.0,-0.00152,-0.00455,22.87835,39.57714,15521.1,108.519,108.429,0.00304177,36.11358,1.485,0.000236552,110949,110949,110874,1.7697e+17,0.241911
5.0,2.0,37.49757,15521.1,-1357.906,-422.167,-27140.024,3e-05,-0.00102,37.49917,126.447,,0.0,-0.00157,-0.00457,22.87847,40.95119,15521.1,126.447,126.568,0.00359082,37.49917,1.54,0.000235839,110614,110614,110761,1.83524e+17,0.231592
5.0,2.0,38.87207,15521.2,-1357.91,-422.167,-27140,0.00027,-0.00044,38.88569,145.1207,,0.0,-0.00159,-0.00456,22.87852,42.32569,15521.2,145.1207,145.155,0.00259113,38.88569,1.595,0.000236029,110703,110703,110653,1.90078e+17,0.234332
5.0,2.0,40.24659,15521.2,-1357.91,-422.167,-27140.025,-0.00026,0.0002,40.2725,164.2242,,0.0,-0.0016,-0.00455,22.87827,43.70021,15521.2,164.2242,164.026,0.00463986,40.2725,1.65,0.000235962,110672,110672,110549,1.96633e+17,0.233372
5.0,2.0,41.61864,15521.3,-1357.91,-422.167,-27140,-3e-05,4e-05,41.65681,183.287,,0.0,-0.00152,-0.00456,22.87849,45.07226,15521.3,183.287,183.414,0.00246758,41.65681,1.705,0.000235209,110319,110319,110449,2.03187e+17,0.222468
5.0,2.0,42.99104,15521.3,-1357.91,-422.167,-27140.026,0.00026,-0.00048,43.04187,202.949,,0.0,-0.00155,-0.00454,22.87832,46.44466,15521.3,202.949,203.113,0.00164473,43.04187,1.76,0.000235266,110346,110346,110352,2.09742e+17,0.223302
5.0,2.0,44.36349,15521.4,-1357.906,-422.167,-27140.026,-9e-05,0.0001,44.42741,223.298,,0.0,-0.0016,-0.00454,22.87853,47.81711,15521.4,223.298,223.015,0.00345227,44.42741,1.815,0.000235378,110398,110398,110259,2.16296e+17,0.224922
5.0,2.0,45.733,15521.4,-1357.906,-422.167,-27140.025,0.0002,-0.00035,45.80972,243.188,,0.0,-0.00155,-0.00455,22.87855,49.18662,15521.4,243.188,243.305,0.00284132,45.80972,1.87,0.000234639,110052,110052,110169,2.22851e+17,0.21423
5.0,2.0,47.10145,15521.5,-1357.91,-422.167,-27140.025,0.00037,-0.00071,47.19144,263.797,,0.0,-0.00155,-0.00453,22.87849,50.55508,15521.5,263.797,263.948,0.00404545,47.19144,1.925,0.000234735,110096,110096,110081,2.29405e+17,0.215613
5.0,2.0,48.46904,15521.6,-1357.907,-422.167,-27140.025,-0.00021,0.00031,48.57293,285.399,,0.0,-0.0015,-0.00461,22.87846,51.92266,15521.6,285.399,285.118,0.00534322,48.57293,1.98,0.000234811,110132,110132,109997,2.35959e+17,0.216719
5.0,3.0,49.52507,15521.6,-1357.906,-422.167,-27140.025,0.00012,-0.00026,49.62944,286.1491,,0.0,-0.0015,-0.00452,22.87849,52.9787,,,,,,2.035,0.000234035,109768,109768,109916,2.42514e+17,0.205487
5.0,3.0,49.92181,15521.7,-1357.91,-422.166,-27140.026,0.00032,-0.0003,50.01734,272.414,,0.0,-0.00153,-0.00456,22.87844,53.37543,,,,,,2.09,0.000234188,109840,109840,109836,2.49068e+17,0.207703
5.0,3.0,50.05037,15521.7,-1357.91,-422.166,-27140.027,0.00023,0.00039,50.14037,263.812,,0.0,-0.00148,-0.00453,22.87827,53.504,,,,,,2.145,0.000234319,109901,109901,109760,2.55623e+17,0.209595
5.0,3.0,50.0802,15521.8,-1357.906,-422.167,-27140.027,-0.00025,0.00018,50.16629,257.742,,0.0,-0.00146,-0.00451,22.87851,53.53382,,,,,,2.2,0.000233562,109546,109546,109685,2.62177e+17,0.198643
5.0,3.0,50.07794,15521.8,-1357.907,-422.167,-27140.027,0.00021,-5e-05,50.16167,254.061,,0.0,-0.00152,-0.00452,22.87838,53.53157,,,,,,2.255,0.000233743,109631,109631,109613,2.68732e+17,0.201251
5.0,3.0,50.06834,15521.9,-1357.907,-422.167,-27140.026,-0.0001,0.00021,50.15085,252.1854,,0.0,-0.00151,-0.0045,22.87858,53.52196,,,,,,2.31,0.000233925,109716,109716,109543,2.75286e+17,0.203892
5.0,3.0,50.0569,15521.9,-1357.91,-422.166,-27140,-0.00022,-0.00014,50.13804,250.05,,0.0,-0.00147,-0.0045,22.8785,53.51052,,,,,,2.365,0.000233151,109353,109353,109475,2.8184e+17,0.192692
5.0,3.0,50.04692,15522,-1357.907,-422.166,-27140.027,-0.00028,-0.0,50.12711,248.566,,0.0,-0.00145,-0.00445,22.87847,53.50055,,,,,,2.42,0.0002333134,109430,109430,109409,2.88395e+17,0.19504
5.0,3.0,50.03981,15522.1,-1357.907,-422.1661,-27140,2e-05,-0.00042,50.11955,247.872,,0.0,-0.0015,-0.00445,22.8786,53.49343,,,,,,2.475,0.000233533,109533,109533,109344,2.94949e+17,0.198217
5.0,3.0,50.03287,15522.1,-1357.91,-422.166,-27140.027,9e-05,0.00048,50.11168,246.431,,0.0,-0.0015,-0.00455,22.87856,53.48649,,,,,,2.53,0.000232692,109138,109138,109281,3.01504e+17,0.186054
5.0,3.0,50.02794,15522.2,-1357.907,-422.167,-27140.027,-7e-05,-0.00024,50.10616,245.513,,0.0,-0.00153,-0.00455,22.87869,53.48156,,,,,,2.585,0.000232938,109254,109254,109220,3.08058e+17,0.189612
5.0,3.0,50.02584,15522.2,-1357.91,-422.167,-27140.027,0.00016,0.0002,50.10404,245.474,,0.0,-0.00153,-0.00451,22.87855,53.47946,,,,,,2.64,0.000233045,109304,109304,109160,3.14613e+17,0.191153
5.0,3.0,50.0223,15522.3,-1357.91,-422.167,-27140,-0.0002,-0.00039,50.09976,244.332,,0.0,-0.00152,-0.00452,22.87853,53.47592,,,,,,2.695,0.000232345,108975,108975,109101,3.21167e+17,0.181019
5.0,3.0,50.02018,15522.3,-1357.91,-422.166,-27140.027,-2e-05,0.0002,50.09728,243.775,,0.0,-0.0015,-0.0045,22.87863,53.4738,,,,,,2.75,0.0002325885,109090,109090,109044,3.27721e+17,0.18455
5.0,3.0,50.01948,15522.4,-1357.906,-422.167,-27140.028,-3e-05,0.00011,50.09662,243.829,,0.0,-0.0015,-0.00454,22.8785,53.4731,,,,,,2.805,0.000232644,109116,109116,108989,3.34276e+17,0.185353
5.0,3.0,50.01751,15522.4,-1357.91,-422.166,-27140.028,1e-05,0.00026,50.09407,242.93,,0.0,-0.00158,-0.00456,22.8785,53.47113,,,,,,2.86,0.000231942,108786,108786,108934,3.4083e+17,0.175198
5.0,3.0,50.01567,15522.5,-1357.91,-422.167,-27140,-6e-05,-0.00021,50.09181,242.283,,0.0,-0.00158,-0.00451,22.87847,53.46929,,,,,,2.915,0.00023232,108964,108964,108881,3.47385e+17,0.180663
5.0,3.0,50.01582,15522.5,-1357.906,-422.167,-27140.028,0.00018,-0.00024,50.09211,242.512,,0.0,-0.0015,-0.00449,22.87858,53.46944,,,,,,2.97,0.000232246,108929,108929,108828,3.53939e+17,0.179595
5.0,3.0,50.01456,15522.6,-1357.91,-422.167,-27140,-1e-05,-0.00014,50.09035,241.735,,0.0,-0.00144,-0.00451,22.87853,53.46818,,,,,,3.025,0.000231602,108627,108627,108777,3.60494e+17,0.170275
5.0,3.0,50.0133,15522.7,-1357.907,-422.167,-27140.028,0.00039,-0.00011,50.08876,241.22,,0.0,-0.00148,-0.00451,22.8786,53.46693,,,,,,3.08,0.000231981,108805,108805,108727,3.67048e+17,0.175759
5.0,3.0,50.01368,15522.7,-1357.907,-422.166,-27140.029,6e-05,0.0001,50.08928,241.448,,0.0,-0.00148,-0.00451,22.87881,53.4673,,,,,,3.135,0.000231851,108744,108744,108678,3.73602e+17,0.173883
5.0,3.0,50.0126,15522.8,-1357.906,-422.167,-27140.028,9e-05,9e-05,50.08777,240.772,,0.0,-0.00148,-0.00451,22.87848,53.46622,,,,,,3.19,0.000231302,108486,108486,108629,3.80157e+17,0.165935
5.0,3.0,50.01166,15522.8,-1357.91,-422.167,-27140,-6e-05,5e-05,50.08652,240.2832,,0.0,-0.00145,-0.00452,22.8787,53.46529,,,,,,3.245,0.000231663,108656,108656,108582,3.86711e+17,0.171162
5.0,3.0,50.01205,15522.9,-1357.906,-422.167,-27140.028,-0.00016,-7e-05,50.08703,240.4728,,0.0,-0.00148,-0.00455,22.87873,53.46568,,,,,,3.3,0.000231585,108619,108619,108535,3.93266e+17,0.170024
5.0,3.0,50.01117,15522.9,-1357.906,-422.1669,-27140,0.00029,-0.0007,50.08576,239.874,,0.0,-0.00148,-0.00453,22.87856,53.4648,,,,,,3.355,0.0002310417,108364,108364,108489,3.9982e+17,0.162165
5.0,3.0,50.01037,15523,-1357.907,-422.167,-27140.028,1e-05,-0.00093,50.08473,239.514,,0.0,-0.00147,-0.00456,22.87864,53.46399,,,,,,3.41,0.000231281,108476,108476,108444,4.06375e+17,0.165627
5.0,3.0,50.01087,15523,-1357.906,-422.166,-27140,0.00045,-7e-05,50.08535,239.692,,0.0,-0.00142,-0.00454,22.87866,53.46449,,,,,,3.465,0.000231351,108509,108509,108400,4.12929e+17,0.16664
5.0,3.0,50.01048,15523.1,-1357.906,-422.166,-27140.028,-1e-05,-0.00013,50.08468,239.267,,0.0,-0.00151,-0.0045,22.87876,53.4641,,,,,,3.52,0.000230747,108226,108226,108357,4.19483e+17,0.157907
5.0,3.0,50.00945,15523.2,-1357.906,-422.1661,-27140,7e-05,0.00025,50.08333,238.757,,0.0,-0.00149,-0.00455,22.87875,53.46308,,,,,,3.575,0.000230877,108287,108287,108314,4.26038e+17,0.159777
5.0,3.0,50.00997,15523.2,-1357.91,-422.166,-27140.028,0.00043,6e-05,50.08402,239.026,,0.0,-0.00157,-0.00455,22.87858,53.4636,,,,,,3.63,0.000231194,108435,108435,108271,4.32592e+17,0.164364
5.0,3.0,50.00968,15523.3,-1357.91,-422.167,-27140.028,-0.00013,-0.00012,50.0835,238.682,,0.0,-0.00159,-0.00453,22.8786,53.4633,,,,,,3.685,0.000230611,108162,108162,108230,4.39147e+17,0.155936
5.0,3.0,50.00846,15523.3,-1357.906,-422.167,-27140.028,0.00011,-5e-05,50.08184,237.991,,0.0,-0.00158,-0.00452,22.87873,53.46208,,,,,,3.74,0.000230552,108134,108134,108189,4.45701e+17,0.155077
5.0,3.0,50.00902,15523.4,-1357.907,-422.167,-27140,0.00025,-0.00021,50.08263,238.354,,0.0,-0.00151,-0.00453,22.87854,53.46264,,,,,,3.795,0.000230913,108304,108304,108148,4.52256e+17,0.160308
5.0,3.0,50.00885,15523.4,-1357.91,-422.166,-27140.027,-1e-05,-0.00024,50.08225,238.025,,0.0,-0.00149,-0.00456,22.87882,53.46247,,,,,,3.85,0.000230279,108007,108007,108108,4.5881e+17,0.151134
5.0,3.0,50.00793,15523.5,-1357.91,-422.167,-27140,-0.00073,-9e-05,50.08099,237.498,,0.0,-0.00149,-0.00454,22.87852,53.46155,,,,,,3.905,0.000230169,107955,107955,108069,4.65364e+17,0.149533
5.0,3.0,50.00864,15523.5,-1357.91,-422.167,-27140.029,-7e-05,0.00017,50.08194,237.859,,0.0,-0.00145,-0.00451,22.87882,53.46227,,,,,,3.96,0.000230658,108184,108184,108030,4.71919e+17,0.156615
5.0,3.0,50.00849,15523.6,-1357.91,-422.166,-27140.028,0.00029,-1e-05,50.08159,237.549,,0.0,-0.00147,-0.00453,22.87877,53.46211,,,,,,4.015,0.000230065,107906,107906,107992,4.78473e+17,0.148024
5.0,3.0,50.00733,15523.6,-1357.907,-422.167,-27140.029,0.0002,0.00017,50.08002,236.926,,0.0,-0.00146,-0.00456,22.87872,53.46095,,,,,,4.07,0.000229878,107818,107818,107954,4.85028e+17,0.14532
5.0,3.0,50.00834,15523.7,-1357.91,-422.167,-27140.028,-1e-05,-0.00012,50.08133,237.398,,0.0,-0.00148,-0.00455,22.87867,53.46196,,,,,,4.125,0.000230449,108086,108086,107917,4.91582e+17,0.153588
5.0,3.0,50.00806,15523.8,-1357.907,-422.166,-27140.027,0.00015,-3e-05,50.08087,237.1014,,0.0,-0.00149,-0.00455,22.87859,53.46168,,,,,,4.18,0.000229864,107812,107812,107880,4.98137e+17,0.145121
5.0,3.0,50.00679,15523.8,-1357.906,-422.167,-27140.029,0.00038,-0.00067,50.07918,236.452,,0.0,-0.00149,-0.00451,22.87878,53.46041,,,,,,4.235,0.0002297,107735,107735,107843,5.04691e+17,0.142751
5.0,3.0,50.00779,15523.9,-1357.906,-422.166,-27140.029,-8e-05,0.00041,50.08052,236.984,,0.0,-0.00152,-0.0045,22.87874,53.46141,,,,,,4.29,0.00023025,107993,107993,107807,5.11246e+17,0.15071
5.0,3.0,50.00758,15523.9,-1357.91,-422.167,-27140.028,-1e-05,-0.0003,50.08007,236.6084,,0.0,-0.00148,-0.00451,22.87864,53.4612,,,,,,4.345,0.0002296458,107709,107709,107772,5.178e+17,0.141964
5.0,3.0,50.00652,15524,-1357.907,-422.167,-27140.029,-0.00045,-3e-05,50.07862,235.998,,0.0,-0.00148,-0.00454,22.87878,53.46014,,,,,,4.4,0.000229471,107627,107627,107737,5.24354e+17,0.139428
5.0,3.0,50.00742,15524,-1357.907,-422.167,-27140,-0.0002,-0.00021,50.07985,236.509,,0.0,-0.00149,-0.00453,22.87887,53.46105,,,,,,4.455,0.000229986,107869,107869,107702,5.30909e+17,0.146889
5.0,3.0,50.00735,15524.1,-1357.91,-422.167,-27140.028,0.00031,0.00024,50.07957,236.188,,0.0,-0.00148,-0.00455,22.87893,53.46098,,,,,,4.51,0.000229405,107596,107596,107667,5.37463e+17,0.138474
5.0,3.0,50.00623,15524.1,-1357.91,-422.166,-27140,0.00014,-0.00042,50.07812,235.672,,0.0,-0.00146,-0.00455,22.8788,53.45986,,,,,,4.565,0.000229236,107517,107517,107633,5.44018e+17,0.13603
5.0,3.0,50.00722,15524.2,-1357.906,-422.167,-27140.028,0.00027,0.00021,50.07944,236.187,,0.0,-0.00154,-0.00455,22.87866,53.46084,,,,,,4.62,0.000229701,107735,107735,107599,5.50572e+17,0.142766
5.0,3.0,50.00681,15524.3,-1357.91,-422.167,-27140,0.00012,0.00014,50.07874,235.737,,0.0,-0.00151,-0.00453,22.87875,53.46044,,,,,,4.675,0.000229225,107512,107512,107566,5.57127e+17,0.135873
5.0,3.0,50.00599,15524.3,-1357.91,-422.167,-27140.028,1e-05,-0.00014,50.07763,235.29,,0.0,-0.00156,-0.00455,22.87871,53.45961,,,,,,4.73,0.000228987,107400,107400,107533,5.63681e+17,0.132434
5.0,3.0,50.00719,15524.4,-1357.91,-422.167,-27140,0.00019,2e-05,50.0792,235.857,,0.0,-0.00151,-0.00453,22.8786,53.46082,,,,,,4.785,0.000229463,107623,107623,107500,5.70235e+17,0.139314
5.0,3.0,50.00657,15524.4,-1357.91,-422.167,-27140.029,-2e-05,-0.00019,50.07822,235.305,,0.0,-0.00151,-0.00453,22.87871,53.46019,,,,,,4.84,0.000229045,107428,107428,107468,5.7679e+17,0.133275
5.0,3.0,50.00586,15524.5,-1357.91,-422.167,-27140.028,-0.00018,-0.0001,50.07731,234.986,,0.0,-0.00146,-0.00457,22.87882,53.45949,,,,,,4.895,0.000228771,107299,107299,107436,5.83344e+17,0.129299
5.0,3.0,50.0068,15524.5,-1357.91,-422.167,-27140.027,0.00047,-0.00011,50.07856,235.479,,0.0,-0.00146,-0.00459,22.87882,53.46042,,,,,,4.95,0.000229231,107515,107515,107404,5.89899e+17,0.135966
5.0,3.0,50.00612,15524.6,-1357.91,-422.167,-27140,4e-05,8e-05,50.07754,234.945,,0.0,-0.00145,-0.00451,22.87885,53.45975,,,,,,5.005,0.0002288609,107341,107341,107372,5.96453e+17,0.130606
5.0,3.0,50.00558,15524.6,-1357.907,-422.167,-27140.028,-0.00037,0.0001,50.07682,234.655,,0.0,-0.0015,-0.00458,22.87873,53.4592,,,,,,5.06,0.000228609,107223,107223,107341,6.03008e+17,0.126955
5.0,3.0,50.00653,15524.7,-1357.907,-422.1669,-27140.027,-0.00017,-0.00024,50.07803,235.07,,0.0,-0.00151,-0.00453,22.87892,53.46016,,,,,,5.115,0.000229049,107429,107429,107310,6.09562e+17,0.133326
5.0,3.0,50.00591,15524.7,-1357.91,-422.167,-27140.028,-0.0,-0.00021,50.07708,234.56,,0.0,-0.00152,-0.00458,22.87891,53.45953,,,,,,5.17,0.000228785,107305,107305,107280,6.16116e+17,0.129502
5.0,3.0,50.00564,15524.8,-1357.906,-422.166,-27140.028,0.0002,0.00022,50.07672,234.423,,0.0,-0.00154,-0.00454,22.87882,53.45926,,,,,,5.225,0.000228639,107237,107237,107249,6.22671e+17,0.127392
5.0,3.0,50.0063,15524.9,-1357.91,-422.167,-27140.027,-0.0001,0.00041,50.0776,234.753,,0.0,-0.0015,-0.00457,22.87884,53.45993,,,,,,5.28,0.000228743,107286,107286,107219,6.29225e+17,0.128902
5.0,3.0,50.00598,15524.9,-1357.91,-422.167,-27140,0.0002,-0.00043,50.07702,234.355,,0.0,-0.00147,-0.00456,22.87888,53.4596,,,,,,5.335,0.000228588,107213,107213,107189,6.3578e+17,0.126651
5.0,3.0,50.0053,15525,-1357.906,-422.166,-27140,0.00035,0.00023,50.07615,234.06,,0.0,-0.0015,-0.00456,22.87891,53.45892,,,,,,5.39,0.000228177,107020,107020,107160,6.42334e+17,0.120705
5.0,3.0,50.00597,15525,-1357.91,-422.168,-27140.029,-0.0005,0.00035,50.07701,234.356,,0.0,-0.00151,-0.00455,22.87887,53.4596,,,,,,5.445,0.000228585,107212,107212,107130,6.48889e+17,0.126609
5.0,3.0,50.00591,15525.1,-1357.91,-422.166,-27140.028,0.00012,-0.00042,50.07683,234.169,,0.0,-0.00147,-0.00457,22.87883,53.45953,,,,,,5.5,0.000228429,107139,107139,107101,6.55443e+17,0.124356
5.0,3.0,50.00519,15525.1,-1357.91,-422.166,-27140.028,0.00023,0.00027,50.07584,233.755,,0.0,-0.00146,-0.00454,22.87877,53.45881,,,,,,5.555,0.0002279573,106917,106917,107073,6.61997e+17,0.117529
5.0,3.0,50.00577,15525.2,-1357.906,-422.168,-27140.028,-0.00014,0.00055,50.07661,234.036,,0.0,-0.00152,-0.00451,22.87876,53.4594,,,,,,5.61,0.000228467,107156,107156,107044,6.68552e+17,0.1249
5.0,3.0,50.00613,15525.2,-1357.91,-422.166,-27140,0.00044,-0.00012,50.07696,234.026,,0.0,-0.00151,-0.00452,22.8788,53.45975,,,,,,5.665,0.000228193,107028,107028,107016,6.75106e+17,0.120946
5.0,3.0,50.00506,15525.3,-1357.91,-422.167,-27140.029,-0.00013,-3e-05,50.07553,233.465,,0.0,-0.00152,-0.00452,22.87893,53.45868,,,,,,5.72,0.000227779,106834,106834,106987,6.81661e+17,0.114955
5.0,3.0,50.00556,15525.4,-1357.91,-422.1669,-27140.029,-0.00026,0.00029,50.0762,233.729,,0.0,-0.00148,-0.00452,22.87899,53.45918,,,,,,5.775,0.000228295,107076,107076,106960,6.88215e+17,0.122412
5.0,3.0,50.006,15525.4,-1357.907,-422.168,-27140.03,0.0003,-0.00022,50.07668,233.793,,0.0,-0.00154,-0.00452,22.87884,53.45963,,,,,,5.83,0.0002279873,106932,106932,106932,6.9477e+17,0.117963
5.0,3.0,50.00476,15525.5,-1357.91,-422.167,-27140,0.00055,-0.00027,50.07502,233.14,,0.0,-0.00149,-0.0045,22.87899,53.45838,,,,,,5.885,0.000227594,106747,106747,106905,7.01324e+17,0.112268
5.0,3.0,50.00524,15525.5,-1357.907,-422.166,-27140.028,0.00017,0.00057,50.07567,233.411,,0.0,-0.00149,-0.00452,22.87883,53.45886,,,,,,5.94,0.00022811,106989,106989,106877,7.07878e+17,0.119738
5.0,3.0,50.00585,15525.6,-1357.906,-422.167,-27140,-0.00064,0.00013,50.07639,233.579,,0.0,-0.0015,-0.00458,22.87904,53.45948,,,,,,5.995,0.000228025,106949,106949,106850,7.14433e+17,0.118513
5.0,3.0,50.00475,15525.6,-1357.91,-422.167,-27140.029,0.00031,-6e-05,50.07482,232.855,,0.0,-0.00152,-0.00455,22.87898,53.45837,,,,,,6.05,0.000227357,106636,106636,106824,7.20987e+17,0.108844
5.0,3.0,50.00505,15525.7,-1357.91,-422.167,-27140,0.00026,0.0001,50.07533,233.175,,0.0,-0.00146,-0.00452,22.87878,53.45867,,,,,,6.105,0.000227827,106856,106856,106797,7.27542e+17,0.115638
5.0,3.0,50.00586,15525.7,-1357.907,-422.167,-27140.029,-0.00017,0.00038,50.07628,233.381,,0.0,-0.00152,-0.00448,22.87882,53.45949,,,,,,6.16,0.000227905,106893,106893,106771,7.34096e+17,0.116773
5.0,3.0,50.0048,15525.8,-1357.91,-422.167,-27140,-0.00014,6e-05,50.07476,232.677,,0.0,-0.00159,-0.00453,22.87878,53.45842,,,,,,6.215,0.000227229,106576,106576,106744,7.40651e+17,0.106991
5.0,3.0,50.00507,15525.8,-1357.906,-422.166,-27140.029,-0.00024,-0.00052,50.0752,232.938,,0.0,-0.00149,-0.00455,22.87892,53.45869,,,,,,6.27,0.000227551,106727,106727,106718,7.47205e+17,0.111645
5.0,3.0,50.00575,15525.9,-1357.91,-422.166,-27140.029,-7e-05,0.00085,50.07598,233.1,,0.0,-0.00152,-0.00452,22.87884,53.45937,,,,,,6.325,0.000227705,106799,106799,106693,7.53759e+17,0.113882
5.0,3.0,50.00449,15526,-1357.906,-422.167,-27140.029,-4e-05,-7e-05,50.07427,232.39,,0.0,-0.00147,-0.00453,22.87896,53.45812,,,,,,6.38,0.000227135,106532,106532,106667,7.60314e+17,0.105627
5.0,3.0,50.00494,15526,-1357.91,-422.167,-27140.029,0.0003,-0.00016,50.07493,232.7278,,0.0,-0.0015,-0.00447,22.87884,53.45856,,,,,,6.435,0.000227442,106676,106676,106642,7.66868e+17,0.110075
5.0,3.0,50.00563,15526.1,-1357.906,-422.167,-27140.029,6e-05,0.00045,50.07574,232.91,,0.0,-0.00152,-0.00447,22.87881,53.45926,,,,,,6.49,0.000227511,106708,106708,106617,7.73423e+17,0.11107
5.0,3.0,50.00443,15526.1,-1357.906,-422.166,-27140,9e-05,-0.00021,50.07409,232.213,,0.0,-0.00154,-0.00444,22.87889,53.45806,,,,,,6.545,0.000226935,106438,106438,106592,7.79977e+17,0.102736
5.0,3.0,50.00485,15526.2,-1357.907,-422.167,-27140.029,3e-05,-3e-05,50.07467,232.457,,0.0,-0.00152,-0.00452,22.87888,53.45847,,,,,,6.6,0.000227308,106613,106613,106567,7.86532e+17,0.108126
5.0,3.0,50.00544,15526.2,-1357.906,-422.167,-27140.029,0.00031,-2e-05,50.07541,232.692,,0.0,-0.00153,-0.00451,22.87908,53.45906,,,,,,6.655,0.00022733,106623,106623,106542,7.93086e+17,0.108447
5.0,3.0,50.00444,15526.3,-1357.906,-422.166,-27140,-0.00014,-6e-05,50.074,232.06,,0.0,-0.00151,-0.00448,22.87905,53.45806,,,,,,6.71,0.000226863,106404,106404,106518,7.9964e+17,0.101694
5.0,3.0,50.00491,15526.3,-1357.906,-422.168,-27140,-2e-05,-1e-05,50.07463,232.295,,0.0,-0.0015,-0.00452,22.87902,53.45853,,,,,,6.765,0.000227144,106536,106536,106494,8.06195e+17,0.105753
5.0,3.0,50.00539,15526.4,-1357.91,-422.167,-27140.029,0.00049,0.0001,50.07522,232.471,,0.0,-0.00149,-0.00451,22.87912,53.45902,,,,,,6.82,0.000227199,106562,106562,106470,8.12749e+17,0.106553
5.0,3.0,50.00424,15526.5,-1357.906,-422.166,-27140,-4e-05,-5e-05,50.07362,231.776,,0.0,-0.00149,-0.0045,22.87895,53.45787,,,,,,6.875,0.000226683,106320,106320,106446,8.19304e+17,0.0990864
5.0,3.0,50.00462,15526.5,-1357.91,-422.167,-27140.029,-0.00015,7e-05,50.07418,232.06,,0.0,-0.00147,-0.00448,22.87881,53.45824,,,,,,6.93,0.000226948,106444,106444,106422,8.25858e+17,0.102928
5.0,3.0,50.00518,15526.6,-1357.906,-422.167,-27140.03,0.00048,-0.00012,50.07481,232.164,,0.0,-0.00151,-0.00447,22.87904,53.4588,,,,,,6.985,0.000227028,106481,106481,106399,8.32413e+17,0.104076
5.0,3.0,50.00453,15526.6,-1357.907,-422.166,-27140.03,-0.00019,-0.0004,50.07389,231.741,,0.0,-0.00152,-0.00449,22.87904,53.45815,,,,,,7.04,0.000226517,106242,106242,106375,8.38967e+17,0.0966802
5.0,3.0,50.00449,15526.7,-1357.907,-422.1661,-27140,-0.00017,0.00036,50.07385,231.737,,0.0,-0.00146,-0.0045,22.87894,53.45811,,,,,,7.095,0.00022681,106379,106379,106352,8.45521e+17,0.100919
5.0,3.0,50.00502,15526.7,-1357.907,-422.166,-27140,0.00032,6e-05,50.07456,232.012,,0.0,-0.00149,-0.00449,22.87911,53.45865,,,,,,7.15,0.000226861,106403,106403,106329,8.52076e+17,0.101665
5.0,3.0,50.00407,15526.8,-1357.91,-422.167,-27140.03,0.00013,-0.00016,50.07324,231.452,,0.0,-0.00153,-0.00449,22.87919,53.4577,,,,,,7.205,0.000226482,106226,106226,106306,8.5863e+17,0.0961849
5.0,3.0,50.00428,15526.8,-1357.91,-422.167,-27140.028,-0.00025,0.00084,50.07349,231.518,,0.0,-0.00152,-0.00444,22.87907,53.4579,,,,,,7.26,0.000226568,106266,106266,106283,8.65185e+17,0.097418
5.0,3.0,50.00505,15526.9,-1357.91,-422.167,-27140,-7e-05,0.00032,50.07447,231.824,,0.0,-0.00148,-0.00451,22.87909,53.45868,,,,,,7.315,0.000226745,106349,106349,106261,8.71739e+17,0.0999906
5.0,3.0,50.00453,15526.9,-1357.907,-422.167,-27140.028,0.00015,-0.00027,50.07366,231.401,,0.0,-0.0015,-0.0045,22.87903,53.45815,,,,,,7.37,0.000226209,106098,106098,106239,8.78294e+17,0.0922329
5.0,3.0,50.00423,15527,-1357.91,-422.166,-27140.03,3e-05,0.00032,50.07329,231.275,,0.0,-0.00157,-0.0045,22.87902,53.45785,,,,,,7.425,0.000226443,106207,106207,106216,8.84848e+17,0.0956099
5.0,3.0,50.00486,15527.1,-1357.91,-422.167,-27140.028,-0.00047,-0.00021,50.07415,231.631,,0.0,-0.0015,-0.00448,22.87912,53.45849,,,,,,7.48,0.000226517,106242,106242,106194,8.91402e+17,0.0966895
5.0,3.0,50.00447,15527.1,-1357.91,-422.1669,-27140.03,0.00021,-0.00049,50.07346,231.17,,0.0,-0.00155,-0.00447,22.87913,53.45809,,,,,,7.535,0.000226032,106015,106015,106173,8.97957e+17,0.0896704
5.0,3.0,50.00395,15527.2,-1357.907,-422.167,-27140.029,0.00017,-0.00041,50.07288,231.0642,,0.0,-0.0015,-0.00449,22.87892,53.45758,,,,,,7.59,0.000226346,106162,106162,106151,9.04511e+17,0.0942137
5.0,3.0,50.00503,15527.2,-1357.91,-422.167,-27140,-0.00019,6e-05,50.07426,231.541,,0.0,-0.00152,-0.00446,22.87919,53.45865,,,,,,7.645,0.000226571,106267,106267,106129,9.11066e+17,0.0974649
5.0,3.0,50.00443,15527.3,-1357.906,-422.167,-27140.029,7e-05,2e-05,50.07329,230.968,,0.0,-0.00154,-0.00454,22.87886,53.45805,,,,,,7.7,0.000226051,106023,106023,106108,9.1762e+17,0.0899458
5.0,3.0,50.00395,15527.3,-1357.91,-422.167,-27140,-3e-05,5e-05,50.07277,230.91,,0.0,-0.00149,-0.00454,22.87902,53.45757,,,,,,7.755,0.00022611,106051,106051,106087,9.24175e+17,0.0907984
5.0,3.0,50.00495,15527.4,-1357.906,-422.167,-27140.029,0.00016,0.0003,50.07405,231.3538,,0.0,-0.00156,-0.0045,22.87896,53.45857,,,,,,7.81,0.000226477,106223,106223,106066,9.30729e+17,0.0961069
5.0,3.0,50.00434,15527.4,-1357.907,-422.166,-27140.031,-4e-05,-0.0,50.07311,230.831,,0.0,-0.0015,-0.00447,22.87898,53.45796,,,,,,7.865,0.000225829,105919,105919,106045,9.37283e+17,0.0867298
5.0,3.0,50.00379,15527.5,-1357.907,-422.167,-27140.031,0.00015,-0.00061,50.07247,230.698,,0.0,-0.00155,-0.00452,22.87903,53.45741,,,,,,7.92,0.00022602,106009,106009,106024,9.43838e+17,0.0894895
5.0,3.0,50.00473,15527.6,-1357.91,-422.1669,-27140,0.00031,0.00031,50.07369,231.1361,,0.0,-0.0015,-0.00451,22.87902,53.45835,,,,,,7.975,0.000226383,106179,106179,106003,9.50392e+17,0.0947513
5.0,3.0,50.00445,15527.6,-1357.91,-422.165,-27140.029,-3e-05,-8e-05,50.07317,230.75,,0.0,-0.00161,-0.00453,22.87901,53.45807,,,,,,8.03,0.000225751,105883,105883,105983,9.56947e+17,0.0856079
5.0,3.0,50.00383,15527.7,-1357.906,-422.167,-27140.03,0.00037,0.00013,50.07237,230.474,,0.0,-0.00157,-0.00447,22.87916,53.45745,,,,,,8.085,0.000225992,105996,105996,105963,9.63501e+17,0.0890853
5.0,3.0,50.00478,15527.7,-1357.91,-422.167,-27140.03,-0.0001,0.0005,50.07365,230.989,,0.0,-0.0015,-0.00448,22.87921,53.4584,,,,,,8.14,0.000226239,106112,106112,105942,9.70056e+17,0.0926638
5.0,3.0,50.00455,15527.8,-1357.91,-422.167,-27140,0.00038,7e-05,50.07324,230.698,,0.0,-0.00149,-0.00451,22.87908,53.45817,,,,,,8.195,0.000225583,105804,105804,105922,9.7661e+17,0.0831688
5.0,3.0,50.00373,15527.8,-1357.906,-422.166,-27140.03,-6e-05,-0.00055,50.07211,230.2281,,0.0,-0.00155,-0.00454,22.87916,53.45735,,,,,,8.25,0.000225829,105919,105919,105902,9.83164e+17,0.0867306
5.0,3.0,50.00461,15527.9,-1357.91,-422.167,-27140.029,-0.00021,-3e-05,50.07334,230.763,,0.0,-0.00154,-0.0045,22.87917,53.45823,,,,,,8.305,0.000225992,105996,105996,105883,9.89719e+17,0.0890922
5.0,3.0,50.00439,15527.9,-1357.91,-422.167,-27140.03,1e-05,-0.00035,50.07293,230.469,,0.0,-0.00156,-0.00452,22.87932,53.45801,,,,,,8.36,0.000225401,105719,105719,105863,9.96273e+17,0.080538
5.0,3.0,50.00383,15528,-1357.906,-422.167,-27140,-4e-05,-0.00017,50.07221,230.221,,0.0,-0.00151,-0.00448,22.87931,53.45745,,,,,,8.415,0.000225746,105880,105880,105844,1.00283e+18,0.0855302
5.0,3.0,50.00461,15528,-1357.907,-422.166,-27140.03,-0.00043,-4e-05,50.07325,230.626,,0.0,-0.00158,-0.00449,22.87926,53.45824,,,,,,8.47,0.000225965,105983,105983,105824,1.00938e+18,0.0886924
5.0,3.0,50.00437,15528.1,-1357.91,-422.1671,-27140,-0.00107,0.00056,50.07281,230.306,,0.0,-0.00154,-0.00447,22.87913,53.458,,,,,,8.525,0.000225361,105699,105699,105805,1.01594e+18,0.0799497
5.0,3.0,50.00384,15528.2,-1357.906,-422.167,-27140.029,0.001,-0.00038,50.0721,230.028,,0.0,-0.00147,-0.00449,22.87914,53.45746,,,,,,8.58,0.0002254846,105758,105758,105786,1.02249e+18,0.0817455
5.0,3.0,50.00458,15528.2,-1357.91,-422.167,-27140.03,-0.00088,0.00036,50.07312,230.483,,0.0,-0.00155,-0.00452,22.87931,53.4582,,,,,,8.635,0.000225774,105893,105893,105767,1.02905e+18,0.0859276
5.0,3.0,50.00434,15528.3,-1357.907,-422.166,-27140.031,0.00076,4e-05,50.07271,230.2,,0.0,-0.00156,-0.00451,22.87916,53.45797,,,,,,8.69,0.000225266,105655,105655,105748,1.0356e+18,0.0785848
5.0,3.0,50.00352,15528.3,-1357.91,-422.167,-27140.03,4e-05,-0.00019,50.07165,229.839,,0.0,-0.00153,-0.00444,22.8792,53.45714,,,,,,8.745,0.000225352,105695,105695,105730,1.04215e+18,0.0798253
5.0,3.0,50.00434,15528.4,-1357.906,-422.166,-27140.03,0.00023,0.00011,50.07273,230.24,,0.0,-0.00158,-0.00448,22.87934,53.45796,,,,,,8.8,0.000225555,105791,105791,105711,1.04871e+18,0.0827646
5.0,3.0,50.00429,15528.4,-1357.91,-422.1668,-27140.029,0.00064,0.00027,50.07259,230.092,,0.0,-0.00151,-0.00445,22.87922,53.45792,,,,,,8.855,0.000225166,105608,105608,105693,1.05526e+18,0.0771357
5.0,3.0,50.00384,15528.5,-1357.906,-422.167,-27140.029,-0.00118,0.00013,50.07194,229.783,,0.0,-0.00149,-0.00444,22.87924,53.45747,,,,,,8.91,0.000225341,105690,105690,105674,1.06182e+18,0.0796665
5.0,3.0,50.0043,15528.5,-1357.907,-422.167,-27140,0.00096,4e-05,50.0726,230.09,,0.0,-0.00148,-0.00439,22.87919,53.45793,,,,,,8.965,0.000225462,105747,105747,105656,1.06837e+18,0.0814206
5.0,3.0,50.00446,15528.6,-1357.907,-422.166,-27140.031,-0.00013,-1e-05,50.07267,229.964,,0.0,-0.0015,-0.00444,22.87922,53.45808,,,,,,9.02,0.000225031,105545,105545,105638,1.07493e+18,0.0751767
5.0,3.0,50.00382,15528.7,-1357.91,-422.167,-27140.03,-0.0001,0.00017,50.0718,229.599,,0.0,-0.00149,-0.0045,22.87931,53.45744,,,,,,9.075,0.000225062,105559,105559,105620,1.08148e+18,0.0756283
5.0,3.0,50.00451,15528.7,-1357.91,-422.166,-27140.029,-1e-05,-0.00025,50.07275,230.003,,0.0,-0.00151,-0.00448,22.87915,53.45813,,,,,,9.13,0.000225385,105711,105711,105603,1.08804e+18,0.0803011
5.0,3.0,50.00432,15528.8,-1357.906,-422.1669,-27140,-0.00012,-3e-05,50.07243,229.81,,0.0,-0.00153,-0.00448,22.87926,53.45794,,,,,,9.185,0.00022495,105507,105507,105585,1.09459e+18,0.0740099
5.0,3.0,50.00398,15528.8,-1357.91,-422.167,-27140.03,4e-05,-1e-05,50.07194,229.561,,0.0,-0.00151,-0.00449,22.87933,53.45761,,,,,,9.24,0.000224917,105491,105491,105568,1.10114e+18,0.0735316
5.0,3.0,50.00458,15528.9,-1357.907,-422.167,-27140,-0.00026,-9e-05,50.07276,229.916,,0.0,-0.00147,-0.00449,22.87934,53.4582,,,,,,9.295,0.000225334,105687,105687,105550,1.1077e+18,0.079567
5.0,3.0,50.00432,15528.9,-1357.907,-422.166,-27140.031,0.00014,5e-05,50.07232,229.622,,0.0,-0.00149,-0.00446,22.87918,53.45794,,,,,,9.35,0.000224958,105511,105511,105533,1.11425e+18,0.0741213
5.0,3.0,50.0037,15529,-1357.907,-422.166,-27140.029,-0.00012,-0.00042,50.07146,229.265,,0.0,-0.00144,-0.00442,22.87926,53.45732,,,,,,9.405,0.000224671,105376,105376,105516,1.12081e+18,0.0699737
5.0,3.0,50.00456,15529,-1357.907,-422.167,-27140,-0.00023,-1e-05,50.07264,229.757,,0.0,-0.00146,-0.00448,22.87934,53.45818,,,,,,9.46,0.0002252597,105652,105652,105499,1.12736e+18,0.0784909
5.0,3.0,50.00468,15529.1,-1357.906,-422.166,-27140,-2e-05,0.00014,50.07268,229.64,,0.0,-0.0015,-0.0045,22.87909,53.4583,,,,,,,,,,,,
5.0,3.0,50.00336,15529.1,-1357.91,-422.167,-27140.029,-0.00044,-0.00049,50.07098,229.0434,,0.0,-0.00152,-0.00448,22.87917,53.45698,,,,,,,,,,,,
5.0,3.0,50.0041,15529.2,-1357.91,-422.166,-27140.028,0.00016,-0.0002,50.07203,229.517,,0.0,-0.00147,-0.0045,22.8793,53.45772,,,,,,,,,,,,
5.0,3.0,50.0043,15529.3,-1357.907,-422.166,-27140.029,0.00018,-0.00028,50.07217,229.427,,0.0,-0.0015,-0.00453,22.87925,53.45792,,,,,,,,,,,,
5.0,3.0,50.00325,15529.3,-1357.906,-422.1661,-27140.031,-0.00029,0.00015,50.07076,228.857,,0.0,-0.00146,-0.00446,22.87943,53.45688,,,,,,,,,,,,
5.0,3.0,50.00413,15529.4,-1357.907,-422.166,-27140.029,0.00011,0.00049,50.07201,229.445,,0.0,-0.00142,-0.00447,22.87926,53.45775,,,,,,,,,,,,
5.0,3.0,50.00432,15529.4,-1357.906,-422.166,-27140,0.00052,0.00057,50.07211,229.31,,0.0,-0.00146,-0.0045,22.87939,53.45794,,,,,,,,,,,,
5.0,3.0,50.0034,15529.5,-1357.91,-422.168,-27140.03,-0.00024,-0.0003,50.07082,228.726,,0.0,-0.00147,-0.0045,22.87938,53.45702,,,,,,,,,,,,
5.0,3.0,50.00422,15529.5,-1357.907,-422.168,-27140.03,-0.00042,7e-05,50.072,229.285,,0.0,-0.00149,-0.00448,22.87938,53.45784,,,,,,,,,,,,
5.0,3.0,50.00429,15529.6,-1357.91,-422.167,-27140.03,0.00028,-1e-05,50.07201,229.207,,0.0,-0.00155,-0.00451,22.87935,53.45791,,,,,,,,,,,,
5.0,3.0,50.00355,15529.6,-1357.906,-422.167,-27140,-0.00033,-0.00011,50.07096,228.715,,0.0,-0.00147,-0.00447,22.87939,53.45718,,,,,,,,,,,,
5.0,3.0,50.00405,15529.7,-1357.906,-422.167,-27140.03,0.00015,0.00022,50.07171,229.094,,0.0,-0.00153,-0.00448,22.8793,53.45768,,,,,,,,,,,,
5.0,3.0,50.00429,15529.8,-1357.91,-422.167,-27140,-1e-05,-0.00051,50.07192,229.052,,0.0,-0.0015,-0.00446,22.87939,53.45792,,,,,,,,,,,,
5.0,3.0,50.00331,15529.8,-1357.907,-422.166,-27140.029,0.00036,-0.00052,50.07061,228.5434,,0.0,-0.00151,-0.00448,22.8793,53.45693,,,,,,,,,,,,
5.0,3.0,50.00422,15529.9,-1357.906,-422.167,-27140,-0.00039,0.00034,50.07183,229.018,,0.0,-0.00151,-0.00451,22.87949,53.45785,,,,,,,,,,,,
5.0,3.0,50.00419,15529.9,-1357.907,-422.167,-27140.029,-0.00023,0.0003,50.07167,228.831,,0.0,-0.0015,-0.00451,22.8794,53.45781,,,,,,,,,,,,
5.0,3.0,50.00315,15530,-1357.91,-422.167,-27140,5e-05,0.00016,50.07032,228.328,,0.0,-0.00154,-0.00448,22.87943,53.45678,,,,,,,,,,,,
5.0,3.0,50.004,15530,-1357.91,-422.166,-27140.03,-0.00014,0.00043,50.07151,228.857,,0.0,-0.00152,-0.00453,22.87927,53.45763,,,,,,,,,,,,
5.0,3.0,50.00436,15530.1,-1357.907,-422.167,-27140,-0.00028,-0.00019,50.07178,228.735,,0.0,-0.00154,-0.00451,22.87946,53.45798,,,,,,,,,,,,
5.0,3.0,50.00343,15530.1,-1357.91,-422.167,-27140.029,-5e-05,-0.00065,50.07055,228.262,,0.0,-0.00147,-0.00452,22.87918,53.45705,,,,,,,,,,,,
5.0,3.0,50.00398,15530.2,-1357.91,-422.167,-27140.03,5e-05,-0.00017,50.07134,228.636,,0.0,-0.00147,-0.00451,22.87943,53.4576,,,,,,,,,,,,
5.0,3.0,50.00407,15530.2,-1357.907,-422.166,-27140.028,0.00026,0.00015,50.07141,228.614,,0.0,-0.00151,-0.00452,22.87947,53.45769,,,,,,,,,,,,
5.0,3.0,50.00335,15530.3,-1357.91,-422.1661,-27140.029,0.00016,0.0,50.07042,228.184,,0.0,-0.00149,-0.00448,22.87936,53.45698,,,,,,,,,,,,
5.0,3.0,50.00409,15530.4,-1357.906,-422.166,-27140.029,-0.00015,0.0002,50.07143,228.603,,0.0,-0.00152,-0.00452,22.87938,53.45771,,,,,,,,,,,,
5.0,3.0,50.00418,15530.4,-1357.906,-422.1669,-27140.029,0.00012,0.00085,50.07148,228.538,,0.0,-0.00148,-0.00451,22.87933,53.45781,,,,,,,,,,,,
5.0,3.0,50.0032,15530.5,-1357.906,-422.168,-27140,-0.00032,4e-05,50.07016,228.017,,0.0,-0.00151,-0.00451,22.87927,53.45682,,,,,,,,,,,,
5.0,3.0,50.00381,15530.5,-1357.91,-422.166,-27140,0.00052,-1e-05,50.07103,228.418,,0.0,-0.00147,-0.00449,22.87935,53.45743,,,,,,,,,,,,
5.0,3.0,50.00437,15530.6,-1357.906,-422.166,-27140.031,-0.00035,4e-05,50.07162,228.463,,0.0,-0.00148,-0.00449,22.87938,53.458,,,,,,,,,,,,
5.0,3.0,50.00361,15530.6,-1357.91,-422.167,-27140,-0.00044,-2e-05,50.07057,228.018,,0.0,-0.00151,-0.00452,22.87958,53.45723,,,,,,,,,,,,
5.0,3.0,50.00387,15530.7,-1357.907,-422.167,-27140.029,0.00023,-0.00019,50.07102,228.314,,0.0,-0.00148,-0.00457,22.87959,53.45749,,,,,,,,,,,,
5.0,3.0,50.00421,15530.7,-1357.906,-422.166,-27140.029,0.00034,0.00033,50.07138,228.334,,0.0,-0.00146,-0.00456,22.87939,53.45784,,,,,,,,,,,,
5.0,3.0,50.00336,15530.8,-1357.91,-422.166,-27140.031,-0.0004,0.00022,50.07023,227.883,,0.0,-0.00147,-0.00458,22.8795,53.45698,,,,,,,,,,,,
5.0,3.0,50.00387,15530.9,-1357.91,-422.166,-27140.029,-0.00022,-0.00022,50.0709,228.122,,0.0,-0.00149,-0.00453,22.87938,53.45749,,,,,,,,,,,,
5.0,3.0,50.00434,15530.9,-1357.906,-422.166,-27140.029,0.00021,1e-05,50.07149,228.316,,0.0,-0.00149,-0.00455,22.87953,53.45796,,,,,,,,,,,,
5.0,3.0,50.00339,15531,-1357.91,-422.1652,-27140.03,-0.00033,-1e-05,50.07016,227.731,,0.0,-0.00149,-0.00457,22.8794,53.45701,,,,,,,,,,,,
5.0,3.0,50.0036,15531,-1357.906,-422.166,-27140.031,-0.00013,-7e-05,50.07051,227.941,,0.0,-0.00145,-0.00452,22.87963,53.45722,,,,,,,,,,,,
5.0,3.0,50.00458,15531.1,-1357.906,-422.167,-27140.029,4e-05,-5e-05,50.07172,228.2892,,0.0,-0.00154,-0.00449,22.87944,53.4582,,,,,,,,,,,,
5.0,3.0,50.0034,15531.1,-1357.907,-422.167,-27140.029,0.00025,-0.00058,50.07008,227.574,,0.0,-0.00156,-0.00456,22.87937,53.45702,,,,,,,,,,,,
5.0,3.0,50.0036,15531.2,-1357.91,-422.167,-27140.028,-0.00021,0.00049,50.0704,227.761,,0.0,-0.00154,-0.00452,22.87951,53.45722,,,,,,,,,,,,
5.0,3.0,50.00449,15531.2,-1357.91,-422.166,-27140.03,0.00026,7e-05,50.07156,228.178,,0.0,-0.00144,-0.00454,22.87939,53.45812,,,,,,,,,,,,
5.0,3.0,50.00334,15531.3,-1357.907,-422.1669,-27140.03,0.0001,-9e-05,50.06994,227.446,,0.0,-0.0015,-0.00455,22.87952,53.45697,,,,,,,,,,,,
5.0,3.0,50.00354,15531.3,-1357.91,-422.167,-27140.03,-0.00021,0.00088,50.07029,227.684,,0.0,-0.00154,-0.00457,22.87938,53.45717,,,,,,,,,,,,
5.0,3.0,50.00456,15531.4,-1357.91,-422.1661,-27140,0.00035,0.00039,50.07157,228.081,,0.0,-0.00148,-0.00458,22.87946,53.45819,,,,,,,,,,,,
5.0,3.0,50.00333,15531.5,-1357.91,-422.167,-27140.029,0.00016,-0.00026,50.06984,227.311,,0.0,-0.00148,-0.00452,22.87954,53.45696,,,,,,,,,,,,
5.0,3.0,50.00355,15531.5,-1357.907,-422.167,-27140,-0.00012,0.00043,50.07025,227.605,,0.0,-0.00151,-0.00448,22.87978,53.45718,,,,,,,,,,,,
5.0,3.0,50.00443,15531.6,-1357.907,-422.167,-27140.029,-0.0002,0.00031,50.07134,227.944,,0.0,-0.00149,-0.00446,22.87935,53.45805,,,,,,,,,,,,
5.0,4.0,49.6905,15531.6,-1357.91,-422.167,-27140.03,0.00013,-0.00049,49.74126,202.84,,0.0,-0.00151,-0.00453,22.87947,53.14413,,,,,,,,,,,,
5.0,4.0,48.87039,15531.7,-1357.906,-422.167,-27140.029,-0.00039,4e-05,48.89397,160.594,,0.0,-0.00149,-0.00449,22.87957,52.32402,,,,,,,,,,,,
5.0,4.0,47.73634,15531.7,-1357.907,-422.1671,-27140,-0.0004,0.00064,47.7336,119.705,,0.0,-0.0015,-0.0045,22.87954,51.18996,,,,,,,,,,,,
5.0,4.0,46.424,15531.8,-1357.907,-422.167,-27140.03,0.00011,-0.00071,46.40062,87.63665,,0.0,-0.0016,-0.00447,22.87956,49.87762,,,,,,,,,,,,
5.0,4.0,45.02611,15531.8,-1357.907,-422.166,-27140.03,0.00033,0.0009,44.99001,67.86775,,0.0,-0.00152,-0.0045,22.87941,48.47973,,,,,,,,,,,,
5.0,4.0,43.59485,15531.9,-1357.91,-422.167,-27140.029,-0.0001,0.00071,43.5514,56.44589,,0.0,-0.00156,-0.00451,22.87956,47.04847,,,,,,,,,,,,
5.0,4.0,42.15378,15532,-1357.91,-422.166,-27140,-1e-05,0.00032,42.10498,48.13483,,0.0,-0.00151,-0.00449,22.87949,45.6074,,,,,,,,,,,,
5.0,4.0,40.71718,15532,-1357.907,-422.167,-27140.031,-4e-05,0.00055,40.66436,41.88581,,0.0,-0.00145,-0.00453,22.87948,44.1708,,,,,,,,,,,,
5.0,4.0,39.28738,15532.1,-1357.91,-422.167,-27140.03,-0.00056,-0.0002,39.23096,36.2767,,0.0,-0.00149,-0.00454,22.87962,42.74101,,,,,,,,,,,,
5.0,4.0,37.86211,15532.1,-1357.906,-422.167,-27140.03,-0.00023,0.00045,37.80218,30.83674,,0.0,-0.00155,-0.00456,22.87941,41.31573,,,,,,,,,,,,
5.0,4.0,36.44326,15532.2,-1357.907,-422.167,-27140.03,-0.00028,3e-05,36.38028,26.09849,,0.0,-0.00143,-0.00449,22.87956,39.89688,,,,,,,,,,,,
5.0,4.0,35.03003,15532.2,-1357.91,-422.166,-27140.029,-0.00023,0.00055,34.96418,21.63413,,0.0,-0.0015,-0.00457,22.87948,38.48365,,,,,,,,,,,,
5.0,4.0,33.61887,15532.3,-1357.91,-422.1669,-27140,0.0002,-3e-05,33.54981,16.6479,,0.0,-0.00148,-0.00451,22.87954,37.07249,,,,,,,,,,,,
5.0,4.0,32.21125,15532.3,-1357.906,-422.167,-27140.029,0.00028,-0.00015,32.1393,12.16075,,0.0,-0.00155,-0.00455,22.87964,35.66487,,,,,,,,,,,,
5.0,4.0,30.80719,15532.4,-1357.91,-422.1669,-27140,-0.00028,-0.00035,30.73249,7.88701,,0.0,-0.00151,-0.00454,22.87966,34.26081,,,,,,,,,,,,
5.0,4.0,29.40345,15532.4,-1357.906,-422.167,-27140.029,0.00011,4e-05,29.32592,3.49519,,0.0,-0.00147,-0.00456,22.87978,32.85707,,,,,,,,,,,,
5.0,4.0,28.0025,15532.5,-1357.91,-422.167,-27140.03,-0.00019,-0.00023,27.9227,-0.0449,,0.0,-0.0015,-0.00451,22.87954,31.45613,,,,,,,,,,,,
5.0,4.0,26.6027,15532.6,-1357.907,-422.167,-27140,2e-05,0.00066,26.52258,-0.54599,,0.0,-0.00153,-0.00453,22.87951,30.05633,,,,,,,,,,,,
5.0,4.0,25.20279,15532.6,-1357.907,-422.1661,-27140,-0.00021,0.00018,25.12258,-0.66702,,0.0,-0.00153,-0.00451,22.87963,28.65641,,,,,,,,,,,,
5.0,4.0,23.80626,15532.7,-1357.91,-422.167,-27140.029,-0.0002,0.00097,23.72596,-0.82232,,0.0,-0.0016,-0.00448,22.87979,27.25988,,,,,,,,,,,,
5.0,4.0,22.41225,15532.7,-1357.91,-422.167,-27140,0.00021,0.00064,22.33186,-0.94855,,0.0,-0.00155,-0.00448,22.87937,25.86587,,,,,,,,,,,,
5.0,4.0,21.01668,15532.8,-1357.907,-422.167,-27140.029,0.00048,-0.00023,20.9362,-1.10492,,0.0,-0.00153,-0.00449,22.87963,24.4703,,,,,,,,,,,,
5.0,4.0,19.62324,15532.8,-1357.906,-422.1671,-27140,0.00031,-0.00014,19.54266,-1.24689,,0.0,-0.00151,-0.00452,22.87968,23.07686,,,,,,,,,,,,
5.0,4.0,18.23159,15532.9,-1357.906,-422.167,-27140.029,0.00016,-0.00041,18.15092,-1.38604,,0.0,-0.00151,-0.00451,22.87966,21.68521,,,,,,,,,,,,
5.0,4.0,16.83938,15532.9,-1357.906,-422.166,-27140,1e-05,0.0008,16.75862,-1.54353,,0.0,-0.0015,-0.00451,22.87962,20.293,,,,,,,,,,,,
5.0,4.0,15.44836,15533,-1357.906,-422.167,-27140.029,0.00034,-5e-05,15.3675,-1.69118,,0.0,-0.00155,-0.00452,22.87983,18.90199,,,,,,,,,,,,
5.0,4.0,14.06002,15533.1,-1357.91,-422.167,-27140,0.00128,0.00055,13.97908,-1.81749,,0.0,-0.00154,-0.00452,22.87965,17.51364,,,,,,,,,,,,
5.0,4.0,12.67008,15533.1,-1357.906,-422.167,-27140.029,-0.00016,0.00024,12.58904,-1.97684,,0.0,-0.0016,-0.00455,22.8797,16.12371,,,,,,,,,,,,
5.0,4.0,11.28094,15533.2,-1357.91,-422.166,-27140.029,-2e-05,0.0005,11.1998,-2.12303,,0.0,-0.00154,-0.00447,22.87965,14.73457,,,,,,,,,,,,
5.0,4.0,9.89535,15533.2,-1357.906,-422.167,-27140.028,-0.00015,0.00088,9.81412,-2.25575,,0.0,-0.00151,-0.00455,22.8797,13.34897,,,,,,,,,,,,
5.0,4.0,8.50843,15533.3,-1357.91,-422.167,-27140.029,0.00012,-0.00032,8.4271,-2.41625,,0.0,-0.00149,-0.00455,22.87956,11.96205,,,,,,,,,,,,
5.0,4.0,7.1226,15533.3,-1357.906,-422.167,-27140.03,-0.00036,0.00061,7.04118,-2.55761,,0.0,-0.00151,-0.00455,22.87969,10.57623,,,,,,,,,,,,
5.0,4.0,5.74048,15533.4,-1357.907,-422.167,-27140.03,-8e-05,0.00069,5.65898,-2.68407,,0.0,-0.00154,-0.00452,22.87971,9.1941,,,,,,,,,,,,
5.0,4.0,4.35702,15533.4,-1357.91,-422.167,-27140.031,0.00042,-0.00013,4.27542,-2.83427,,0.0,-0.00151,-0.00453,22.87957,7.81064,,,,,,,,,,,,
5.0,4.0,2.97517,15533.5,-1357.905,-422.167,-27140,5e-05,0.0003,2.89348,-2.9778,,0.0,-0.00151,-0.00453,22.87982,6.4288,,,,,,,,,,,,
5.0,4.0,1.59826,15533.5,-1357.906,-422.167,-27140.029,5e-05,0.00051,1.51649,-3.10189,,0.0,-0.0015,-0.00447,22.87955,5.05188,,,,,,,,,,,,
5.0,4.0,0.42253,15533.6,-1357.91,-422.166,-27140,-0.0002,-4e-05,0.34067,-3.24105,,0.0,-0.00145,-0.00452,22.87975,3.87615,,,,,,,,,,,,
5.0,4.0,0.20966,15533.6,-1357.907,-422.166,-27140.03,-0.00041,-0.00057,0.1278,-3.24857,,0.0,-0.00145,-0.00451,22.87975,3.66329,,,,,,,,,,,,