File: dataset_example/processed_data/ForceRelax_example/data/data_1_Measurements/GMM Fitting Results/data_1_8_GMM Fit.csv
Index [#],Phase [#],Displacement [um],Time [s],Pos X [um],Pos Y [um],Pos Z [um],Piezo X [um],Piezo Y [um],Piezo Z [um],Force A [uN],Force B [uN],Gripper [V],Voltage A [V],Voltage B [V],Temperature [oC],Sample Displacement [um],Filtered time [uN},Filtered force [uN],SG Force [uN],Est Force 2nd derivative,Filtered displacement [um],Sel Time [s],Sel Force [N],Sel Modulus Uncorrected [Pa],Sel Modulus Corrected [Pa],Sel Modulus GMM Fit [Pa],Sel Time Normalised [s m-2],Sel Force Normalised []
7.0,2.0,0.00629,15563,-857.903,77.84099,-27144.122,-0.00023,-0.00016,-0.10343,-0.10941,,0.0,-0.00152,-0.00453,22.88303,-20.3729,15563,-0.10941,-0.114875,0.000329735,-0.10343,0.0,0.000273135,127318,127318,128639,0.0,1.0
7.0,2.0,0.50958,15563.1,-857.9039,77.84085,-27144.1,-4e-05,-7e-05,0.39989,-0.06945,,0.0,-0.00153,-0.00455,22.8831,-19.8696,15563.1,-0.06945,-0.0648462,0.000329735,0.39989,0.055,0.000262012,122133,122133,121626,6500663126398626.0,0.82274
7.0,2.0,1.47517,15563.1,-857.904,77.84099,-27144.124,1e-05,-3e-05,1.36555,0.03225,,0.0,-0.00148,-0.00456,22.88288,-18.90401,15563.1,0.03225,0.0255384,0.00018545,1.36555,0.11,0.000250752,116884,116884,117041,1.30013e+16,0.643295
7.0,2.0,2.69334,15563.2,-857.904,77.841,-27144.1,-9e-05,-1e-05,2.58378,0.13228,,0.0,-0.00152,-0.00457,22.883,-17.68584,15563.2,0.13228,0.137251,0.000135534,2.58378,0.165,0.000243994,113734,113734,114005,1.9502e+16,0.535599
7.0,2.0,4.06362,15563.2,-857.904,77.841,-27144.123,0.00028,-8e-05,3.95414,0.26517,,0.0,-0.00153,-0.00455,22.88298,-16.31557,15563.2,0.26517,0.251732,-0.000463362,3.95414,0.22,0.000240175,111954,111954,111961,2.60027e+16,0.474747
7.0,2.0,5.48486,15563.3,-857.9048,77.84015,-27144.124,6e-05,-3e-05,5.37543,0.32219,,0.0,-0.00152,-0.00459,22.88307,-14.89432,15563.3,0.32219,0.312976,0.000372559,5.37543,0.275,0.000237078,110510,110510,110554,3.25033e+16,0.42539
7.0,2.0,6.9139,15563.3,-857.903,77.841,-27144.124,-9e-05,-0.00039,6.80452,0.41234,,0.0,-0.00149,-0.0045,22.88309,-13.46529,15563.3,0.41234,0.407693,0.000149824,6.80452,0.33,0.00023496,109523,109523,109558,3.9004e+16,0.391642
7.0,2.0,8.33927,15563.4,-857.903,77.84085,-27144.124,0.00024,-0.00012,8.22997,0.5271,,0.0,-0.00152,-0.00453,22.88288,-12.03991,15563.4,0.5271,0.4585,-0.001256,8.22997,0.385,0.000233817,108990,108990,108829,4.55046e+16,0.373425
7.0,2.0,9.75946,15563.4,-857.904,77.84,-27144.125,-5e-05,-0.00053,9.65005,0.36777,,0.0,-0.00152,-0.00454,22.88297,-10.61973,15563.4,0.36777,0.356198,0.0018264,9.65005,0.44,0.000232394,108327,108327,108273,5.20053e+16,0.350743
7.0,2.0,11.17112,15563.5,-857.904,77.8401,-27144.1,-0.00033,-0.00036,11.06175,0.42762,,0.0,-0.00151,-0.00451,22.88315,-9.20807,15563.5,0.42762,0.435577,5.73541e-05,11.06175,0.495,0.000231266,107801,107801,107834,5.8506e+16,0.332776
7.0,2.0,12.57771,15563.6,-857.905,77.84,-27144.124,-0.00026,-0.00069,12.4684,0.5138,,0.0,-0.00153,-0.00455,22.8832,-7.80148,15563.6,0.5138,0.513537,-0.000109328,12.4684,0.55,0.000230896,107629,107629,107473,6.50066e+16,0.326882
7.0,2.0,13.98106,15563.6,-857.9039,77.84015,-27144.126,-0.00011,0.00034,13.8718,0.58834,,0.0,-0.00153,-0.00454,22.88297,-6.39812,15563.6,0.58834,0.5812,5.44802e-06,13.8718,0.605,0.000230022,107221,107221,107165,7.15073e+16,0.312944
7.0,2.0,15.37857,15563.7,-857.905,77.84,-27144.126,1e-05,-0.0005,15.26935,0.64729,,0.0,-0.00153,-0.00453,22.88301,-5.00061,15563.7,0.64729,0.650841,-3.25798e-05,15.26935,0.66,0.000229155,106817,106817,106895,7.8008e+16,0.299128
7.0,2.0,16.77335,15563.7,-857.903,77.8409,-27144.127,5e-05,-0.00051,16.66417,0.72207,,0.0,-0.00147,-0.00453,22.8831,-3.60584,15563.7,0.72207,0.71796,-0.000284804,16.66417,0.715,0.000229084,106784,106784,106654,8.45086e+16,0.297997
7.0,2.0,18.16738,15563.8,-857.904,77.83901,-27144.126,-6e-05,1e-05,18.05822,0.75169,,0.0,-0.00143,-0.00453,22.88288,-2.21181,15563.8,0.75169,0.751115,-0.000132993,18.05822,0.77,0.000228312,106425,106425,106433,9.10093e+16,0.285704
7.0,2.0,19.5568,15563.8,-857.904,77.84,-27144.127,-3e-05,8e-05,19.44765,0.76262,,0.0,-0.00154,-0.00448,22.88316,-0.82238,15563.8,0.76262,0.7687,0.000259821,19.44765,0.825,0.0002277,106139,106139,106230,9.75099e+16,0.27595
7.0,2.0,20.94455,15563.9,-857.905,77.84,-27144.127,8e-05,-0.00051,20.83544,0.82202,,0.0,-0.0015,-0.00453,22.88298,0.56537,15563.9,0.82202,0.818272,0.000158374,20.83544,0.88,0.000227836,106202,106202,106040,1.04011e+17,0.278104
7.0,2.0,22.33246,15563.9,-857.9031,77.841,-27144.1,-0.00046,0.00025,22.22339,0.89343,,0.0,-0.00149,-0.00444,22.8831,1.95328,15563.9,0.89343,0.883086,-0.00036502,22.22339,0.935,0.00022716,105887,105887,105861,1.10511e+17,0.267339
7.0,2.0,23.71706,15564,-857.903,77.841,-27144.128,8e-05,-0.00015,23.608,0.89736,,0.0,-0.00147,-0.0045,22.88324,3.33788,15564,0.89736,0.904779,0.000411921,23.608,0.99,0.000226458,105560,105560,105692,1.17012e+17,0.256156
7.0,2.0,25.10028,15564.1,-857.904,77.8401,-27144.1,-4e-05,-0.00026,24.99126,0.96739,,0.0,-0.00146,-0.00447,22.88308,4.72109,15564.1,0.96739,0.919819,0.00514568,24.99126,1.045,0.000226619,105635,105635,105533,1.23513e+17,0.258712
7.0,2.0,26.48297,15564.1,-857.904,77.841,-27144.128,0.00025,-8e-05,26.3743,1.50984,,0.0,-0.00149,-0.00453,22.88312,6.10379,15564.1,1.50984,1.636,0.0543458,26.3743,1.1,0.000225969,105332,105332,105381,1.30013e+17,0.248361
7.0,2.0,27.86088,15564.2,-857.904,77.84,-27144.1,-0.00033,-0.00046,27.75699,8.93415,,0.0,-0.00149,-0.00452,22.88312,7.4817,15564.2,8.93415,8.88545,0.047575,27.75699,1.155,0.0002254238,105078,105078,105237,1.36514e+17,0.239671
7.0,2.0,29.23683,15564.2,-857.904,77.84099,-27144.129,-3e-05,-0.00078,29.14134,21.99164,,0.0,-0.00146,-0.00452,22.88321,8.85765,15564.2,21.99164,22.1142,0.0158851,29.14134,1.21,0.0002257993,105253,105253,105099,1.43015e+17,0.245655
7.0,2.0,30.61584,15564.3,-857.904,77.84,-27144.1,-7e-05,-0.00039,30.53019,37.27917,,0.0,-0.00144,-0.0045,22.88317,10.23666,15564.3,37.27917,37.1487,0.00200975,30.53019,1.265,0.000225009,104885,104885,104967,1.49515e+17,0.233062
7.0,2.0,31.99254,15564.3,-857.903,77.841,-27144.13,-0.00026,0.0,31.91663,52.41657,,0.0,-0.00146,-0.00452,22.88324,11.61336,15564.3,52.41657,52.4647,0.00811277,31.91663,1.32,0.000224642,104714,104714,104842,1.56016e+17,0.22721
7.0,2.0,33.36887,15564.4,-857.903,77.84085,-27144.1,0.00023,-0.00035,33.30338,68.60338,,0.0,-0.00149,-0.00453,22.88305,12.98969,15564.4,68.60338,68.7875,0.00686636,33.30338,1.375,0.00022503,104894,104894,104721,1.62517e+17,0.233394
7.0,2.0,34.74606,15564.4,-857.903,77.84,-27144.13,0.00031,0.00011,34.69181,86.08893,,0.0,-0.0015,-0.00455,22.88318,14.36687,15564.4,86.08893,85.952,-0.00086296,34.69181,1.43,0.000224193,104504,104504,104606,1.69017e+17,0.220055
7.0,2.0,36.12238,15564.5,-857.903,77.8428,-27144.13,-6e-05,0.00037,36.07907,103.079,,0.0,-0.00149,-0.00451,22.88318,15.7432,15564.5,103.079,103.044,0.00126806,36.07907,1.485,0.000223967,104399,104399,104495,1.75518e+17,0.216459
7.0,2.0,37.49625,15564.5,-857.904,77.84,-27144.13,-0.00025,-0.00037,37.46387,120.063,,0.0,-0.00152,-0.00451,22.8832,17.11706,15564.5,120.063,120.263,0.00126065,37.46387,1.54,0.0002243298,104568,104568,104389,1.82019e+17,0.222237
7.0,2.0,38.87189,15564.6,-857.904,77.84,-27144.13,0.00022,-0.00033,38.85095,137.828,,0.0,-0.00147,-0.00452,22.8831,18.49271,15564.6,137.828,137.658,0.00366017,38.85095,1.595,0.000223526,104193,104193,104287,1.88519e+17,0.209422
7.0,2.0,40.24535,15564.7,-857.904,77.841,-27144.13,6e-05,-0.00067,40.23578,155.497,,0.0,-0.00145,-0.00449,22.88317,19.86617,15564.7,155.497,155.464,0.00551715,40.23578,1.65,0.000223196,104040,104040,104189,1.9502e+17,0.20417
7.0,2.0,41.61734,15564.7,-857.903,77.8399,-27144.13,-0.00057,-0.00067,41.61947,173.701,,0.0,-0.00149,-0.00448,22.88316,21.23815,15564.7,173.701,173.918,0.0011087,41.61947,1.705,0.000223706,104278,104278,104095,2.01521e+17,0.212304
7.0,2.0,42.99078,15564.8,-857.904,77.84,-27144.13,0.00056,-0.00052,43.00515,192.717,,0.0,-0.00151,-0.00454,22.88314,22.6116,15564.8,192.717,192.53,-0.000209736,43.00515,1.76,0.00022298,103939,103939,104004,2.08021e+17,0.200726
7.0,2.0,44.36209,15564.8,-857.904,77.84015,-27144.1,-0.00042,-0.00012,44.38833,211.157,,0.0,-0.00148,-0.00452,22.88318,23.98291,15564.8,211.157,211.095,0.00332205,44.38833,1.815,0.000222714,103815,103815,103917,2.14522e+17,0.196496
7.0,2.0,45.73116,15564.9,-857.903,77.84,-27144.131,-9e-05,-3e-05,45.76938,229.764,,0.0,-0.00149,-0.00454,22.88318,25.35198,15564.9,229.764,230.037,0.00302702,45.76938,1.87,0.000223051,103972,103972,103832,2.21023e+17,0.201852
7.0,2.0,47.10084,15564.9,-857.904,77.841,-27144.1,0.00061,-0.00036,47.15178,249.541,,0.0,-0.00151,-0.00453,22.88313,26.72165,15564.9,249.541,249.392,0.00484079,47.15178,1.925,0.000222504,103717,103717,103750,2.27523e+17,0.193143
7.0,2.0,48.46682,15565,-857.903,77.84099,-27144.131,0.00029,-0.00047,48.5305,269.343,,0.0,-0.00158,-0.0045,22.88331,28.08763,15565,269.343,269.154,0.00138096,48.5305,1.98,0.0002222,103575,103575,103672,2.34024e+17,0.188294
7.0,3.0,49.52284,15565,-857.904,77.8399,-27144.1,0.00014,-6e-05,49.58704,270.14,,0.0,-0.00156,-0.00454,22.88326,29.14366,,,,,,2.035,0.000222498,103714,103714,103595,2.40525e+17,0.193039
7.0,3.0,49.91999,15565.1,-857.904,77.84001,-27144.13,-0.00014,-0.00031,49.9763,257.879,,0.0,-0.00155,-0.0045,22.88339,29.54081,,,,,,2.09,0.000222095,103526,103526,103521,2.47025e+17,0.186628
7.0,3.0,50.04775,15565.2,-857.903,77.84085,-27144.1,-0.0,-0.00056,50.09867,249.514,,0.0,-0.00154,-0.0045,22.8832,29.66856,,,,,,2.145,0.000221728,103355,103355,103450,2.53526e+17,0.180774
7.0,3.0,50.07791,15565.2,-857.904,77.84,-27144.13,-6e-05,-0.00038,50.12524,243.921,,0.0,-0.0015,-0.00454,22.88324,29.69873,,,,,,2.2,0.000222006,103485,103485,103380,2.60027e+17,0.185209
7.0,3.0,50.07669,15565.3,-857.903,77.84,-27144.131,-0.00029,0.00044,50.12202,240.809,,0.0,-0.0015,-0.00454,22.88337,29.69751,,,,,,2.255,0.000221751,103366,103366,103313,2.66527e+17,0.181148
7.0,3.0,50.06672,15565.3,-857.904,77.841,-27144.13,0.00025,-8e-05,50.11068,238.684,,0.0,-0.00148,-0.00455,22.8835,29.68754,,,,,,2.31,0.000221283,103148,103148,103248,2.73028e+17,0.173685
7.0,3.0,50.05494,15565.4,-857.9031,77.841,-27144.131,3e-05,4e-05,50.09751,236.526,,0.0,-0.00148,-0.0046,22.88329,29.67575,,,,,,2.365,0.00022147,103235,103235,103184,2.79529e+17,0.176672
7.0,3.0,50.0454,15565.4,-857.903,77.841,-27144.131,-0.00019,9e-05,50.08728,235.466,,0.0,-0.00148,-0.00454,22.88325,29.66621,,,,,,2.42,0.000221368,103187,103187,103122,2.86029e+17,0.17503
7.0,3.0,50.03858,15565.5,-857.9038,77.84,-27144.131,-8e-05,0.00026,50.07995,234.671,,0.0,-0.00146,-0.00449,22.88334,29.6594,,,,,,2.475,0.000220829,102936,102936,103062,2.9253e+17,0.166456
7.0,3.0,50.03182,15565.5,-857.904,77.84,-27144.132,4e-05,-9e-05,50.0723,233.287,,0.0,-0.00147,-0.00452,22.88324,29.65264,,,,,,2.53,0.000221103,103064,103064,103003,2.99031e+17,0.170823
7.0,3.0,50.02743,15565.6,-857.904,77.84015,-27144.132,-0.00022,0.00026,50.06751,232.665,,0.0,-0.00149,-0.00453,22.88317,29.64824,,,,,,2.585,0.0002210552,103042,103042,102946,3.05531e+17,0.170054
7.0,3.0,50.0249,15565.6,-857.903,77.84,-27144.132,6e-05,-0.0,50.06481,232.404,,0.0,-0.00143,-0.00455,22.88325,29.64571,,,,,,2.64,0.000220406,102739,102739,102890,3.12032e+17,0.159708
7.0,3.0,50.02118,15565.7,-857.904,77.84085,-27144.1,0.00018,-0.00019,50.0604,231.334,,0.0,-0.00148,-0.00457,22.88315,29.64199,,,,,,2.695,0.000220601,102830,102830,102836,3.18532e+17,0.162808
7.0,3.0,50.01925,15565.8,-857.904,77.83901,-27144.133,7e-05,8e-05,50.05825,230.987,,0.0,-0.00155,-0.00454,22.88324,29.64006,,,,,,2.75,0.0002207627,102905,102905,102783,3.25033e+17,0.165392
7.0,3.0,50.01856,15565.8,-857.903,77.83985,-27144.1,0.00011,0.00019,50.05747,230.841,,0.0,-0.0015,-0.00453,22.88326,29.63937,,,,,,2.805,0.0002202055,102646,102646,102731,3.31534e+17,0.156513
7.0,3.0,50.01617,15565.9,-857.904,77.842,-27144.131,-7e-05,-0.00093,50.05443,229.825,,0.0,-0.00148,-0.00453,22.88328,29.63699,,,,,,2.86,0.000220288,102684,102684,102680,3.38034e+17,0.157823
7.0,3.0,50.01523,15565.9,-857.903,77.84085,-27144.131,-5e-05,-0.00021,50.05339,229.676,,0.0,-0.00147,-0.00455,22.88323,29.63604,,,,,,2.915,0.000220578,102819,102819,102630,3.44535e+17,0.162454
7.0,3.0,50.01484,15566,-857.904,77.84,-27144.132,7e-05,0.00021,50.05295,229.586,,0.0,-0.00148,-0.00455,22.88338,29.63566,,,,,,2.97,0.000219897,102502,102502,102581,3.51036e+17,0.151604
7.0,3.0,50.013,15566,-857.904,77.84,-27144.132,0.00033,-0.00027,50.05053,228.696,,0.0,-0.00155,-0.00452,22.88346,29.63382,,,,,,3.025,0.000219973,102537,102537,102534,3.57536e+17,0.152815
7.0,3.0,50.01273,15566.1,-857.904,77.841,-27144.132,-0.00018,8e-05,50.0502,228.61,,0.0,-0.00148,-0.00453,22.88337,29.63355,,,,,,3.08,0.000220066,102581,102581,102487,3.64037e+17,0.15429
7.0,3.0,50.013,15566.1,-857.904,77.84,-27144.132,0.00074,0.00051,50.05049,228.641,,0.0,-0.00151,-0.00448,22.88322,29.63382,,,,,,3.135,0.000219458,102297,102297,102441,3.70538e+17,0.144602
7.0,3.0,50.01104,15566.2,-857.903,77.84,-27144.132,1e-05,-0.00027,50.04795,227.735,,0.0,-0.00148,-0.0045,22.88339,29.63186,,,,,,3.19,0.00021965,102387,102387,102396,3.77038e+17,0.147657
7.0,3.0,50.01085,15566.3,-857.904,77.84021,-27144.1,0.00039,-1e-05,50.04777,227.742,,0.0,-0.00147,-0.00452,22.88345,29.63167,,,,,,3.245,0.000219915,102510,102510,102352,3.83539e+17,0.15188
7.0,3.0,50.01141,15566.3,-857.904,77.84,-27144.133,0.00029,-0.00019,50.04832,227.748,,0.0,-0.00147,-0.00452,22.88317,29.63222,,,,,,3.3,0.000219219,102186,102186,102308,3.9004e+17,0.140794
7.0,3.0,50.00978,15566.4,-857.903,77.84,-27144.1,-0.00076,-0.00046,50.04613,226.8618,,0.0,-0.00145,-0.00453,22.88332,29.63059,,,,,,3.355,0.000219391,102266,102266,102266,3.9654e+17,0.143527
7.0,3.0,50.01003,15566.4,-857.904,77.84,-27144.132,0.00043,-0.0004,50.04654,227.108,,0.0,-0.00148,-0.00453,22.88338,29.63085,,,,,,3.41,0.000219565,102347,102347,102224,4.03041e+17,0.14631
7.0,3.0,50.01004,15566.5,-857.904,77.8401,-27144.1,-0.00039,0.00028,50.04645,226.958,,0.0,-0.00147,-0.00449,22.88337,29.63086,,,,,,3.465,0.000218991,102080,102080,102183,4.09542e+17,0.137163
7.0,3.0,50.00867,15566.5,-857.904,77.84,-27144.133,-0.00011,9e-05,50.04457,226.161,,0.0,-0.0015,-0.0045,22.88341,29.62949,,,,,,3.52,0.000219064,102114,102114,102142,4.16042e+17,0.138323
7.0,3.0,50.00888,15566.6,-857.905,77.8418,-27144.132,0.00039,0.00057,50.04492,226.389,,0.0,-0.00147,-0.0045,22.88344,29.62969,,,,,,3.575,0.000219276,102212,102212,102102,4.22543e+17,0.141693
7.0,3.0,50.00919,15566.6,-857.903,77.83999,-27144.132,1e-05,0.00013,50.04519,226.315,,0.0,-0.00148,-0.00454,22.88345,29.63001,,,,,,3.63,0.000218716,101951,101951,102063,4.29044e+17,0.132772
7.0,3.0,50.00808,15566.7,-857.904,77.84171,-27144.1,-0.0,-0.00039,50.04361,225.587,,0.0,-0.00151,-0.00453,22.88331,29.62889,,,,,,3.685,0.000218759,101972,101972,102024,4.35544e+17,0.133469
7.0,3.0,50.0081,15566.7,-857.904,77.84,-27144.133,-0.00016,9e-05,50.04373,225.746,,0.0,-0.00151,-0.00453,22.8835,29.62891,,,,,,3.74,0.00021902,102093,102093,101986,4.42045e+17,0.137622
7.0,3.0,50.00859,15566.8,-857.904,77.84021,-27144.1,0.00016,6e-05,50.04424,225.775,,0.0,-0.00149,-0.00458,22.8834,29.62941,,,,,,3.795,0.000218601,101898,101898,101949,4.48546e+17,0.130944
7.0,3.0,50.0075,15566.9,-857.903,77.84001,-27144.133,-8e-05,0.00012,50.04271,225.0916,,0.0,-0.00153,-0.00455,22.88334,29.62832,,,,,,3.85,0.000218485,101844,101844,101912,4.55046e+17,0.129097
7.0,3.0,50.00757,15566.9,-857.903,77.84,-27144.1,0.00045,0.00053,50.04288,225.243,,0.0,-0.00153,-0.00454,22.8835,29.62839,,,,,,3.905,0.000218804,101992,101992,101875,4.61547e+17,0.134173
7.0,3.0,50.00807,15567,-857.903,77.84,-27144.133,-0.00022,-0.00017,50.04342,225.309,,0.0,-0.00146,-0.00453,22.88346,29.62889,,,,,,3.96,0.000218365,101788,101788,101839,4.68048e+17,0.12719
7.0,3.0,50.00706,15567,-857.904,77.841,-27144.134,-5e-05,-0.0003,50.04198,224.652,,0.0,-0.00151,-0.00454,22.88345,29.62787,,,,,,4.015,0.000218229,101724,101724,101803,4.74548e+17,0.12502
7.0,3.0,50.00711,15567.1,-857.904,77.841,-27144.134,0.00035,0.00039,50.04209,224.745,,0.0,-0.0015,-0.00453,22.88345,29.62792,,,,,,4.07,0.00021852,101860,101860,101768,4.81049e+17,0.12965
7.0,3.0,50.00789,15567.1,-857.904,77.84085,-27144.134,-6e-05,0.00037,50.04298,224.896,,0.0,-0.0015,-0.00448,22.88351,29.62871,,,,,,4.125,0.00021813,101678,101678,101734,4.8755e+17,0.123442
7.0,3.0,50.00674,15567.2,-857.903,77.84,-27144.134,-0.00025,0.00013,50.0414,224.245,,0.0,-0.00153,-0.00452,22.88337,29.62756,,,,,,4.18,0.000217987,101612,101612,101700,4.9405e+17,0.121165
7.0,3.0,50.00647,15567.2,-857.9031,77.84085,-27144.1,0.00021,0.00031,50.0411,224.189,,0.0,-0.00147,-0.00449,22.88339,29.62729,,,,,,4.235,0.000218365,101788,101788,101666,5.00551e+17,0.127179
7.0,3.0,50.00715,15567.3,-857.904,77.84,-27144.133,8e-05,0.00026,50.04193,224.417,,0.0,-0.00151,-0.00455,22.88334,29.62797,,,,,,4.29,0.000217935,101587,101587,101633,5.07052e+17,0.120324
7.0,3.0,50.00607,15567.4,-857.9048,77.84,-27144.1,0.00055,4e-05,50.04041,223.751,,0.0,-0.00142,-0.00453,22.88344,29.62688,,,,,,4.345,0.000217729,101491,101491,101600,5.13552e+17,0.117048
7.0,3.0,50.00585,15567.4,-857.903,77.841,-27144.134,-0.00038,5e-05,50.04009,223.591,,0.0,-0.00151,-0.00453,22.88351,29.62666,,,,,,4.4,0.000218162,101693,101693,101567,5.20053e+17,0.123952
7.0,3.0,50.00673,15567.5,-857.903,77.8401,-27144.134,-0.00012,6e-05,50.04123,223.992,,0.0,-0.0015,-0.00449,22.88346,29.62755,,,,,,4.455,0.000217762,101506,101506,101535,5.26554e+17,0.11757
7.0,3.0,50.00608,15567.5,-857.903,77.84,-27144.135,0.00013,-0.00033,50.04025,223.479,,0.0,-0.00145,-0.0045,22.88345,29.62689,,,,,,4.51,0.000217452,101362,101362,101503,5.33054e+17,0.112634
7.0,3.0,50.00543,15567.6,-857.903,77.84,-27144.134,-7e-05,0.00029,50.03942,223.196,,0.0,-0.00144,-0.00448,22.88358,29.62625,,,,,,4.565,0.000217939,101589,101589,101472,5.39555e+17,0.120386
7.0,3.0,50.00644,15567.6,-857.903,77.84,-27144.135,7e-05,0.00024,50.04071,223.6311,,0.0,-0.00151,-0.00448,22.88346,29.62726,,,,,,4.62,0.000217537,101402,101402,101441,5.46056e+17,0.113989
7.0,3.0,50.00582,15567.7,-857.903,77.84015,-27144.1,0.00013,2e-05,50.03979,223.174,,0.0,-0.00149,-0.00447,22.88334,29.62663,,,,,,4.675,0.000217274,101279,101279,101410,5.52556e+17,0.109798
7.0,3.0,50.00509,15567.7,-857.903,77.841,-27144.134,-3e-05,0.00016,50.03882,222.797,,0.0,-0.00148,-0.00448,22.88342,29.6259,,,,,,4.73,0.000217835,101540,101540,101380,5.59057e+17,0.11873
7.0,3.0,50.00608,15567.8,-857.903,77.8401,-27144.1,-0.0003,-4e-05,50.04008,223.2158,,0.0,-0.0015,-0.00457,22.88347,29.6269,,,,,,4.785,0.000217327,101304,101304,101350,5.65558e+17,0.110645
7.0,3.0,50.00609,15567.8,-857.904,77.84,-27144.135,0.00024,-0.00012,50.03997,223.018,,0.0,-0.00152,-0.00452,22.88345,29.62691,,,,,,4.84,0.000217077,101187,101187,101320,5.72058e+17,0.106651
7.0,3.0,50.00469,15567.9,-857.904,77.84015,-27144.1,-5e-05,-2e-05,50.03813,222.331,,0.0,-0.00151,-0.00454,22.88346,29.62551,,,,,,4.895,0.000217646,101453,101453,101291,5.78559e+17,0.11573
7.0,3.0,50.00597,15568,-857.904,77.841,-27144.134,-0.00027,0.00024,50.03976,222.882,,0.0,-0.00149,-0.0045,22.88347,29.62679,,,,,,4.95,0.000217185,101238,101238,101262,5.8506e+17,0.108381
7.0,3.0,50.00552,15568,-857.904,77.84079,-27144.1,0.00026,0.00021,50.0391,222.565,,0.0,-0.00148,-0.00453,22.88338,29.62634,,,,,,5.005,0.000216826,101070,101070,101233,5.9156e+17,0.10265
7.0,3.0,50.00481,15568.1,-857.903,77.84099,-27144.134,-3e-05,-1e-05,50.03812,222.138,,0.0,-0.0015,-0.00452,22.8834,29.62562,,,,,,5.06,0.000217354,101316,101316,101204,5.98061e+17,0.111073
7.0,3.0,50.00563,15568.1,-857.904,77.8401,-27144.135,0.00033,0.00042,50.03924,222.613,,0.0,-0.00143,-0.0045,22.88354,29.62645,,,,,,5.115,0.000217118,101207,101207,101176,6.04562e+17,0.107315
7.0,3.0,50.00544,15568.2,-857.904,77.84,-27144.135,-0.00028,-0.00015,50.03882,222.252,,0.0,-0.00154,-0.00458,22.88355,29.62626,,,,,,5.17,0.000216625,100977,100977,101148,6.11062e+17,0.099455
7.0,3.0,50.00452,15568.2,-857.9031,77.84015,-27144.1,-9e-05,-9e-05,50.03761,221.792,,0.0,-0.00151,-0.00455,22.88357,29.62534,,,,,,5.225,0.000217138,101216,101216,101121,6.17563e+17,0.107634
7.0,3.0,50.00542,15568.3,-857.904,77.841,-27144.134,-0.00017,0.00034,50.03882,222.28,,0.0,-0.00151,-0.00451,22.88361,29.62624,,,,,,5.28,0.000216888,101099,101099,101093,6.24064e+17,0.10364
7.0,3.0,50.00522,15568.3,-857.902,77.84079,-27144.134,9e-05,2e-05,50.03842,221.969,,0.0,-0.00154,-0.00451,22.88348,29.62603,,,,,,5.335,0.000216579,100955,100955,101066,6.30564e+17,0.0987246
7.0,3.0,50.00449,15568.4,-857.904,77.84001,-27144.133,6e-05,-0.00043,50.03746,221.608,,0.0,-0.00146,-0.0045,22.88338,29.62531,,,,,,5.39,0.000217006,101154,101154,101040,6.37065e+17,0.105529
7.0,3.0,50.00531,15568.5,-857.904,77.84085,-27144.1,6e-05,0.00029,50.03855,222.02,,0.0,-0.00144,-0.00453,22.88357,29.62613,,,,,,5.445,0.000216611,100970,100970,101013,6.43566e+17,0.0992355
7.0,3.0,50.00493,15568.5,-857.904,77.84001,-27144.135,-0.00027,-0.00038,50.03792,221.6469,,0.0,-0.00146,-0.00454,22.8836,29.62574,,,,,,5.5,0.000216392,100868,100868,100987,6.50066e+17,0.0957355
7.0,3.0,50.00428,15568.6,-857.904,77.84085,-27144.1,0.00032,-0.00039,50.03706,221.316,,0.0,-0.0015,-0.00452,22.88359,29.62509,,,,,,5.555,0.000216814,101065,101065,100961,6.56567e+17,0.102473
7.0,3.0,50.00505,15568.6,-857.904,77.841,-27144.134,0.00018,-7e-05,50.03809,221.727,,0.0,-0.00149,-0.00453,22.88355,29.62586,,,,,,5.61,0.000216453,100897,100897,100935,6.63068e+17,0.096717
7.0,3.0,50.00492,15568.7,-857.904,77.841,-27144.1,-0.00027,0.00043,50.03779,221.452,,0.0,-0.00152,-0.0045,22.88367,29.62574,,,,,,5.665,0.000216236,100795,100795,100910,6.69568e+17,0.0932594
7.0,3.0,50.0041,15568.7,-857.903,77.839,-27144.133,-0.00013,-0.00016,50.03671,221.044,,0.0,-0.00143,-0.00456,22.88345,29.62492,,,,,,5.72,0.000216667,100996,100996,100884,6.76069e+17,0.100121
7.0,3.0,50.00468,15568.8,-857.904,77.84,-27144.134,0.00048,-0.00012,50.03751,221.385,,0.0,-0.0015,-0.00455,22.88361,29.6255,,,,,,5.775,0.000216319,100834,100834,100859,6.8257e+17,0.0945711
7.0,3.0,50.00491,15568.8,-857.903,77.84001,-27144.134,1e-05,0.00093,50.03767,221.29,,0.0,-0.00149,-0.00454,22.88352,29.62572,,,,,,5.83,0.000216038,100703,100703,100834,6.8907e+17,0.0901025
7.0,3.0,50.00405,15568.9,-857.9039,77.84015,-27144.1,-4e-05,-0.00015,50.03651,220.819,,0.0,-0.00153,-0.0045,22.8836,29.62487,,,,,,5.885,0.000216422,100882,100882,100810,6.95571e+17,0.0962236
7.0,3.0,50.00445,15568.9,-857.904,77.841,-27144.1,0.00017,0.00037,50.0371,221.116,,0.0,-0.00147,-0.00451,22.88375,29.62526,,,,,,5.94,0.000216281,100816,100816,100786,7.02072e+17,0.0939741
7.0,3.0,50.00474,15569,-857.905,77.84,-27144.1,0.00018,4e-05,50.03738,221.098,,0.0,-0.00142,-0.00452,22.88369,29.62556,,,,,,5.995,0.000215905,100641,100641,100762,7.08572e+17,0.0879876
7.0,3.0,50.00392,15569.1,-857.903,77.841,-27144.133,-0.00014,4e-05,50.03624,220.6,,0.0,-0.00149,-0.00454,22.88385,29.62474,,,,,,6.05,0.000216226,100791,100791,100738,7.15073e+17,0.0931029
7.0,3.0,50.0044,15569.1,-857.904,77.8409,-27144.133,0.00021,-0.00066,50.03688,220.847,,0.0,-0.00147,-0.00449,22.88354,29.62522,,,,,,6.105,0.000216245,100800,100800,100714,7.21574e+17,0.0934063
7.0,3.0,50.00485,15569.2,-857.904,77.84001,-27144.134,0.00022,-0.00022,50.03738,220.931,,0.0,-0.00148,-0.00449,22.88348,29.62566,,,,,,6.16,0.000215706,100548,100548,100691,7.28074e+17,0.0848146
7.0,3.0,50.00381,15569.2,-857.904,77.84085,-27144.1,-0.00034,0.00012,50.03597,220.339,,0.0,-0.00154,-0.00449,22.88377,29.62463,,,,,,6.215,0.000216031,100700,100700,100667,7.34575e+17,0.0899953
7.0,3.0,50.00417,15569.3,-857.903,77.84001,-27144.134,-3e-05,0.0002,50.03649,220.613,,0.0,-0.00156,-0.0045,22.88361,29.62498,,,,,,6.27,0.000216132,100747,100747,100644,7.41076e+17,0.0915989
7.0,3.0,50.00477,15569.3,-857.904,77.84,-27144.1,0.00035,-0.00012,50.03716,220.721,,0.0,-0.00153,-0.0045,22.8838,29.62558,,,,,,6.325,0.000215528,100465,100465,100622,7.47576e+17,0.0819698
7.0,3.0,50.00382,15569.4,-857.904,77.84101,-27144.135,-0.00016,0.0002,50.03585,220.156,,0.0,-0.00154,-0.00452,22.88361,29.62464,,,,,,6.38,0.000215822,100602,100602,100599,7.54077e+17,0.0866532
7.0,3.0,50.00401,15569.4,-857.9049,77.83929,-27144.135,-0.0004,-5e-05,50.03616,220.3341,,0.0,-0.00148,-0.00452,22.88378,29.62483,,,,,,6.435,0.000216076,100721,100721,100577,7.60578e+17,0.0907119
7.0,3.0,50.0047,15569.5,-857.904,77.84199,-27144.135,0.00024,-2e-05,50.03696,220.514,,0.0,-0.00149,-0.00455,22.88371,29.62551,,,,,,6.49,0.000215453,100430,100430,100555,7.67078e+17,0.0807849
7.0,3.0,50.00365,15569.6,-857.903,77.83929,-27144.134,-0.00016,0.00013,50.03554,219.939,,0.0,-0.00155,-0.00452,22.88392,29.62447,,,,,,6.545,0.000215622,100509,100509,100533,7.73579e+17,0.0834682
7.0,3.0,50.00406,15569.6,-857.903,77.841,-27144.133,3e-05,0.00033,50.03612,220.201,,0.0,-0.00153,-0.00453,22.8837,29.62488,,,,,,6.6,0.000216001,100686,100686,100511,7.8008e+17,0.0895076
7.0,3.0,50.00477,15569.7,-857.904,77.84085,-27144.134,0.00018,-0.00043,50.03693,220.343,,0.0,-0.00156,-0.00448,22.88375,29.62559,,,,,,6.655,0.000215289,100354,100354,100489,7.8658e+17,0.0781593
7.0,3.0,50.0035,15569.7,-857.904,77.841,-27144.135,-0.00016,-0.00052,50.03524,219.687,,0.0,-0.00157,-0.00452,22.88371,29.62432,,,,,,6.71,0.00021548,100443,100443,100468,7.93081e+17,0.0812023
7.0,3.0,50.00417,15569.8,-857.904,77.84085,-27144.135,-0.00027,0.00068,50.03616,220.098,,0.0,-0.0015,-0.00449,22.88383,29.62498,,,,,,6.765,0.000215815,100599,100599,100447,7.99582e+17,0.0865426
7.0,3.0,50.00458,15569.8,-857.903,77.841,-27144.133,0.00036,0.0003,50.03659,220.128,,0.0,-0.00146,-0.00454,22.8838,29.62539,,,,,,6.82,0.000215209,100316,100316,100426,8.06082e+17,0.0768849
7.0,3.0,50.00338,15569.9,-857.904,77.84085,-27144.1,-0.0002,-2e-05,50.03496,219.454,,0.0,-0.00145,-0.00447,22.88388,29.62419,,,,,,6.875,0.000215325,100371,100371,100405,8.12583e+17,0.078737
7.0,3.0,50.00382,15569.9,-857.903,77.841,-27144.135,-0.00027,8e-05,50.0356,219.767,,0.0,-0.00146,-0.0045,22.88392,29.62464,,,,,,6.93,0.00021581,100597,100597,100385,8.19084e+17,0.0864603
7.0,3.0,50.00455,15570,-857.9031,77.84015,-27144.1,-4e-05,0.00014,50.03649,220.001,,0.0,-0.00147,-0.00444,22.88398,29.62537,,,,,,6.985,0.00021517,100298,100298,100364,8.25584e+17,0.0762679
7.0,3.0,50.00365,15570,-857.903,77.841,-27144.134,-5e-05,-0.00051,50.03518,219.372,,0.0,-0.00148,-0.00448,22.88354,29.62446,,,,,,7.04,0.000215213,100319,100319,100344,8.32085e+17,0.0769566
7.0,3.0,50.00359,15570.1,-857.9031,77.84,-27144.135,-0.00016,0.00021,50.03522,219.536,,0.0,-0.00151,-0.00445,22.88388,29.62441,,,,,,7.095,0.000215542,100472,100472,100324,8.38586e+17,0.0821997
7.0,3.0,50.0046,15570.2,-857.904,77.84001,-27144.137,1e-05,0.00029,50.03644,219.847,,0.0,-0.0015,-0.00448,22.88381,29.62542,,,,,,7.15,0.000215029,100233,100233,100304,8.45086e+17,0.0740214
7.0,3.0,50.00346,15570.2,-857.904,77.84,-27144.135,6e-05,-0.00038,50.03488,219.209,,0.0,-0.00146,-0.0045,22.88384,29.62428,,,,,,7.205,0.000215117,100274,100274,100284,8.51587e+17,0.0754277
7.0,3.0,50.00353,15570.3,-857.903,77.841,-27144.135,-0.00012,-0.00019,50.03502,219.318,,0.0,-0.00146,-0.00452,22.88379,29.62434,,,,,,7.26,0.00021539,100401,100401,100265,8.58088e+17,0.0797806
7.0,3.0,50.00422,15570.3,-857.9039,77.84085,-27144.1,-0.00049,0.00051,50.03588,219.587,,0.0,-0.00148,-0.0045,22.88384,29.62503,,,,,,7.315,0.000214951,100196,100196,100245,8.64588e+17,0.0727728
7.0,3.0,50.00336,15570.4,-857.903,77.842,-27144.135,-4e-05,-0.00032,50.03468,219.048,,0.0,-0.00148,-0.00449,22.88375,29.62418,,,,,,7.37,0.000214854,100151,100151,100226,8.71089e+17,0.071232
7.0,3.0,50.0037,15570.4,-857.904,77.84015,-27144.1,0.00019,-0.00014,50.03516,219.272,,0.0,-0.00149,-0.00447,22.88386,29.62452,,,,,,7.425,0.000215272,100346,100346,100207,8.7759e+17,0.0778852
7.0,3.0,50.00418,15570.5,-857.904,77.84,-27144.135,-0.00029,0.00022,50.03572,219.385,,0.0,-0.00147,-0.00451,22.88387,29.625,,,,,,7.48,0.000214832,100141,100141,100188,8.8409e+17,0.0708803
7.0,3.0,50.00337,15570.5,-857.904,77.84085,-27144.135,-0.00028,-0.00061,50.03455,218.828,,0.0,-0.00149,-0.0045,22.88382,29.62419,,,,,,7.535,0.000214677,100068,100068,100170,8.90591e+17,0.0684054
7.0,3.0,50.00384,15570.6,-857.903,77.84,-27144.136,0.00036,-0.00025,50.03525,219.191,,0.0,-0.00148,-0.0045,22.88388,29.62465,,,,,,7.59,0.000215077,100255,100255,100151,8.97092e+17,0.0747849
7.0,3.0,50.00422,15570.7,-857.904,77.84085,-27144.1,-0.00016,0.00028,50.03569,219.277,,0.0,-0.00146,-0.00448,22.88406,29.62503,,,,,,7.645,0.0002149401,100191,100191,100133,9.03592e+17,0.0726037
7.0,3.0,50.0033,15570.7,-857.903,77.841,-27144.135,-0.00011,0.00021,50.03442,218.727,,0.0,-0.00143,-0.00451,22.88396,29.62412,,,,,,7.7,0.000214511,99991.3,99991.3,100115,9.10093e+17,0.0657698
7.0,3.0,50.00357,15570.8,-857.903,77.84,-27144.135,0.00042,6e-05,50.03482,218.933,,0.0,-0.00148,-0.00444,22.88388,29.62439,,,,,,7.755,0.000214848,100148,100148,100097,9.16594e+17,0.071137
7.0,3.0,50.00419,15570.8,-857.904,77.84,-27144.136,-0.0,4e-05,50.03554,219.09,,0.0,-0.00145,-0.00451,22.88377,29.62501,,,,,,7.81,0.0002148326,100141,100141,100079,9.23094e+17,0.0708906
7.0,3.0,50.00344,15570.9,-857.903,77.84085,-27144.1,-0.00014,-1e-05,50.03451,218.662,,0.0,-0.00147,-0.0045,22.88389,29.62426,,,,,,7.865,0.000214347,99914.7,99914.7,100061,9.29595e+17,0.0631517
7.0,3.0,50.00338,15570.9,-857.903,77.841,-27144.135,0.00021,1e-05,50.03446,218.685,,0.0,-0.00151,-0.00449,22.88376,29.6242,,,,,,7.92,0.000214764,100109,100109,100044,9.36095e+17,0.0698046
7.0,3.0,50.00398,15571,-857.903,77.8401,-27144.1,-1e-05,0.00028,50.03524,218.958,,0.0,-0.00142,-0.00453,22.88376,29.62479,,,,,,7.975,0.000214805,100128,100128,100026,9.42596e+17,0.070451
7.0,3.0,50.00348,15571,-857.904,77.841,-27144.136,-0.00028,0.00013,50.03448,218.552,,0.0,-0.00145,-0.00451,22.88389,29.6243,,,,,,8.03,0.00021423,99860.1,99860.1,100009,9.49097e+17,0.0612846
7.0,3.0,50.00321,15571.1,-857.903,77.84015,-27144.1,0.00025,8e-05,50.03415,218.454,,0.0,-0.00145,-0.00448,22.88394,29.62403,,,,,,8.085,0.000214639,100051,100051,99992.2,9.55597e+17,0.0677992
7.0,3.0,50.00402,15571.1,-857.903,77.84,-27144.135,0.00026,0.00017,50.0352,218.8221,,0.0,-0.00151,-0.00447,22.88383,29.62484,,,,,,8.14,0.000214636,100049,100049,99975.2,9.62098e+17,0.0677581
7.0,3.0,50.00365,15571.2,-857.9041,77.84015,-27144.1,1e-05,0.00029,50.03463,218.52,,0.0,-0.00146,-0.00449,22.8838,29.62447,,,,,,8.195,0.000214163,99829.1,99829.1,99958.5,9.68599e+17,0.0602231
7.0,3.0,50.00306,15571.3,-857.904,77.84001,-27144.134,-0.0001,-0.00029,50.03387,218.262,,0.0,-0.00147,-0.00452,22.8839,29.62387,,,,,,8.25,0.000214655,100058,100058,99941.9,9.75099e+17,0.0680665
7.0,3.0,50.00388,15571.3,-857.903,77.8409,-27144.134,6e-05,-0.00026,50.03498,218.701,,0.0,-0.00147,-0.00457,22.88395,29.6247,,,,,,8.305,0.000214446,99961.1,99961.1,99925.4,9.816e+17,0.0647363
7.0,3.0,50.00397,15571.4,-857.903,77.84,-27144.135,-0.00044,-0.00033,50.0349,218.4319,,0.0,-0.00151,-0.00453,22.88395,29.62479,,,,,,8.36,0.000214017,99760.9,99760.9,99909.1,9.88101e+17,0.0578938
7.0,3.0,50.00286,15571.4,-857.903,77.8409,-27144.1,-0.00032,0.00017,50.03353,218.036,,0.0,-0.00145,-0.00462,22.88376,29.62367,,,,,,8.415,0.00021452,99995.5,99995.5,99892.9,9.94601e+17,0.0659132
7.0,3.0,50.00374,15571.5,-857.903,77.84,-27144.135,-0.00014,0.00021,50.03472,218.511,,0.0,-0.00147,-0.00453,22.88396,29.62456,,,,,,8.47,0.000214391,99935,99935,99876.8,1.0011e+18,0.0638457
7.0,3.0,50.00378,15571.5,-857.904,77.84085,-27144.1,5e-05,0.00064,50.03462,218.313,,0.0,-0.00153,-0.00453,22.8838,29.62459,,,,,,8.525,0.00021388,99697.2,99697.2,99860.9,1.0076e+18,0.0557147
7.0,3.0,50.00271,15571.6,-857.904,77.84,-27144.135,0.00024,-3e-05,50.03324,217.82,,0.0,-0.00146,-0.00449,22.88412,29.62352,,,,,,8.58,0.000214395,99937.3,99937.3,99845.2,1.0141e+18,0.0639225
7.0,3.0,50.00357,15571.6,-857.904,77.84,-27144.1,-0.00015,-6e-05,50.03444,218.346,,0.0,-0.00144,-0.00455,22.8839,29.62438,,,,,,8.635,0.000214302,99894,99894,99829.6,1.0206e+18,0.0624424
7.0,3.0,50.00362,15571.7,-857.904,77.84,-27144.134,0.00053,-0.0001,50.03439,218.195,,0.0,-0.00146,-0.00458,22.88399,29.62444,,,,,,8.69,0.0002138349,99676,99676,99814.1,1.0271e+18,0.0549914
7.0,3.0,50.00268,15571.8,-857.903,77.84085,-27144.135,-0.0001,-0.00015,50.03312,217.674,,0.0,-0.00147,-0.00453,22.88389,29.6235,,,,,,8.745,0.0002142773,99882.2,99882.2,99798.8,1.03361e+18,0.0620414
7.0,3.0,50.00397,15571.8,-857.905,77.841,-27144.135,0.00029,-0.00023,50.03482,218.317,,0.0,-0.0015,-0.00452,22.88396,29.62479,,,,,,8.8,0.000214122,99809.7,99809.7,99783.5,1.04011e+18,0.0595623
7.0,3.0,50.00369,15571.9,-857.903,77.83915,-27144.134,-0.00019,-2e-05,50.03438,218.079,,0.0,-0.00145,-0.00452,22.88415,29.6245,,,,,,8.855,0.000213766,99644.1,99644.1,99768.5,1.04661e+18,0.0538985
7.0,3.0,50.00292,15571.9,-857.904,77.84,-27144.135,-0.00088,-0.00021,50.03333,217.639,,0.0,-0.00146,-0.00452,22.88379,29.62374,,,,,,8.91,0.00021417,99832.4,99832.4,99753.5,1.05311e+18,0.0603377
7.0,3.0,50.00367,15572,-857.904,77.84115,-27144.136,-0.00032,0.00015,50.03435,218.056,,0.0,-0.00143,-0.00449,22.88385,29.62448,,,,,,8.965,0.000214019,99761.7,99761.7,99738.7,1.05961e+18,0.0579202
7.0,3.0,50.0035,15572,-857.904,77.841,-27144.135,0.0005,-0.00022,50.03406,217.868,,0.0,-0.00145,-0.00459,22.88403,29.62431,,,,,,9.02,0.000213593,99563.2,99563.2,99724,1.06611e+18,0.0511352
7.0,3.0,50.00261,15572.1,-857.903,77.84085,-27144.1,-0.00015,1e-05,50.03289,217.428,,0.0,-0.00154,-0.00451,22.88407,29.62343,,,,,,9.075,0.0002139879,99747.3,99747.3,99709.5,1.07261e+18,0.0574296
7.0,3.0,50.00354,15572.1,-857.903,77.84,-27144.135,0.00024,0.00043,50.03412,217.9,,0.0,-0.00148,-0.00453,22.88399,29.62436,,,,,,9.13,0.000213935,99722.8,99722.8,99695.1,1.07911e+18,0.0565893
7.0,3.0,50.00355,15572.2,-857.904,77.84,-27144.1,-1e-05,0.00017,50.03407,217.807,,0.0,-0.00146,-0.00448,22.88414,29.62437,,,,,,9.185,0.000213607,99570,99570,99680.8,1.08561e+18,0.0513664
7.0,3.0,50.00274,15572.2,-857.905,77.842,-27144.134,0.00037,-6e-05,50.03299,217.398,,0.0,-0.00143,-0.00451,22.88418,29.62355,,,,,,9.24,0.00021387,99692.3,99692.3,99666.6,1.09211e+18,0.055548
7.0,3.0,50.00336,15572.3,-857.903,77.84,-27144.1,-0.00034,-7e-05,50.0338,217.684,,0.0,-0.00148,-0.00451,22.88407,29.62418,,,,,,9.295,0.000213943,99726.5,99726.5,99652.6,1.09861e+18,0.0567156
7.0,3.0,50.00378,15572.4,-857.903,77.841,-27144.135,-9e-05,-0.00029,50.03426,217.746,,0.0,-0.00146,-0.00456,22.88413,29.62459,,,,,,9.35,0.000213509,99524.3,99524.3,99638.6,1.10511e+18,0.0498049
7.0,3.0,50.00272,15572.4,-857.9031,77.84,-27144.1,4e-05,-1e-05,50.03287,217.2376,,0.0,-0.00144,-0.00454,22.88388,29.62354,,,,,,9.405,0.000213683,99605.4,99605.4,99624.8,1.11161e+18,0.0525783
7.0,3.0,50.0032,15572.5,-857.904,77.84,-27144.134,-0.00023,0.00061,50.03353,217.513,,0.0,-0.00142,-0.00455,22.88398,29.62402,,,,,,9.46,0.000213896,99704.7,99704.7,99611.2,1.11811e+18,0.0559727
7.0,3.0,50.00368,15572.5,-857.9031,77.83929,-27144.135,-0.00048,0.00012,50.03408,217.629,,0.0,-0.00145,-0.00453,22.884,29.62449,,,,,,,,,,,,
7.0,3.0,50.0029,15572.6,-857.904,77.84,-27144.134,5e-05,-0.00048,50.03303,217.192,,0.0,-0.00148,-0.00451,22.88411,29.62372,,,,,,,,,,,,
7.0,3.0,50.00294,15572.6,-857.9039,77.841,-27144.1,-0.00037,-4e-05,50.0331,217.238,,0.0,-0.00149,-0.0046,22.8841,29.62376,,,,,,,,,,,,
7.0,3.0,50.00377,15572.7,-857.903,77.84,-27144.134,0.00047,0.00022,50.03416,217.614,,0.0,-0.00146,-0.00458,22.88404,29.62458,,,,,,,,,,,,
7.0,3.0,50.00292,15572.7,-857.904,77.84,-27144.1,0.00012,-0.00017,50.03301,217.134,,0.0,-0.00144,-0.00461,22.884,29.62374,,,,,,,,,,,,
7.0,3.0,50.00276,15572.8,-857.905,77.841,-27144.133,-0.00051,-0.0001,50.0328,217.051,,0.0,-0.00146,-0.00462,22.88405,29.62358,,,,,,,,,,,,
7.0,3.0,50.00367,15572.9,-857.904,77.84,-27144.1,0.0004,0.00031,50.03401,217.536,,0.0,-0.00151,-0.00458,22.88428,29.62448,,,,,,,,,,,,
7.0,3.0,50.00331,15572.9,-857.903,77.84,-27144.136,-0.0007,-0.00029,50.0334,217.132,,0.0,-0.00144,-0.00457,22.88403,29.62413,,,,,,,,,,,,
7.0,3.0,50.00251,15573,-857.904,77.8411,-27144.1,0.00043,-0.0,50.03241,216.839,,0.0,-0.00143,-0.00455,22.88384,29.62333,,,,,,,,,,,,
7.0,3.0,50.00363,15573,-857.903,77.841,-27144.134,-0.00061,0.00027,50.03391,217.423,,0.0,-0.00147,-0.0046,22.88413,29.62445,,,,,,,,,,,,
7.0,3.0,50.00311,15573.1,-857.904,77.84,-27144.1,0.00027,-0.00015,50.03308,216.954,,0.0,-0.00145,-0.00459,22.8841,29.62393,,,,,,,,,,,,
7.0,3.0,50.00255,15573.1,-857.904,77.842,-27144.136,-9e-05,-0.00012,50.0324,216.776,,0.0,-0.00145,-0.00461,22.88409,29.62336,,,,,,,,,,,,
7.0,3.0,50.00355,15573.2,-857.903,77.8409,-27144.1,-0.00015,0.00053,50.03376,217.315,,0.0,-0.00151,-0.00458,22.88421,29.62437,,,,,,,,,,,,
7.0,3.0,50.00285,15573.2,-857.903,77.84099,-27144.135,6e-05,0.00012,50.03268,216.738,,0.0,-0.0015,-0.00462,22.88424,29.62367,,,,,,,,,,,,
7.0,3.0,50.00257,15573.3,-857.9049,77.84115,-27144.135,-0.0002,-0.0,50.0324,216.74,,0.0,-0.00148,-0.00459,22.88434,29.62338,,,,,,,,,,,,
7.0,3.0,50.00376,15573.3,-857.903,77.841,-27144.134,5e-05,0.00057,50.0339,217.226,,0.0,-0.0015,-0.0046,22.88406,29.62457,,,,,,,,,,,,
7.0,3.0,50.00285,15573.4,-857.904,77.84015,-27144.135,-0.00013,-0.00023,50.03259,216.599,,0.0,-0.00145,-0.00457,22.88419,29.62367,,,,,,,,,,,,
7.0,3.0,50.00251,15573.5,-857.905,77.84001,-27144.135,6e-05,-0.00053,50.03223,216.567,,0.0,-0.00148,-0.00459,22.88406,29.62333,,,,,,,,,,,,
7.0,3.0,50.00357,15573.5,-857.904,77.84085,-27144.134,0.00019,0.00035,50.03361,217.062,,0.0,-0.0015,-0.00459,22.88431,29.62438,,,,,,,,,,,,
7.0,3.0,50.00268,15573.6,-857.904,77.841,-27144.135,-0.00049,-0.00057,50.03238,216.524,,0.0,-0.00155,-0.00462,22.88422,29.6235,,,,,,,,,,,,
7.0,3.0,50.00242,15573.6,-857.904,77.84085,-27144.135,0.00059,-0.00022,50.03207,216.453,,0.0,-0.00151,-0.00455,22.88405,29.62324,,,,,,,,,,,,
7.0,3.0,50.00347,15573.7,-857.904,77.84,-27144.135,0.00035,0.00016,50.03341,216.903,,0.0,-0.00154,-0.00458,22.88421,29.62429,,,,,,,,,,,,
7.0,3.0,50.00292,15573.7,-857.904,77.84,-27144.1,-0.0002,0.00036,50.03257,216.448,,0.0,-0.00151,-0.00458,22.88407,29.62374,,,,,,,,,,,,
7.0,3.0,50.00268,15573.8,-857.904,77.84,-27144.134,6e-05,0.00029,50.03233,216.45,,0.0,-0.00155,-0.00455,22.88417,29.6235,,,,,,,,,,,,
7.0,3.0,50.00357,15573.8,-857.903,77.84,-27144.134,0.00038,-0.00045,50.03346,216.815,,0.0,-0.00152,-0.00456,22.88414,29.62439,,,,,,,,,,,,
7.0,3.0,50.00299,15573.9,-857.902,77.84,-27144.134,-0.00022,-0.00032,50.03258,216.345,,0.0,-0.00152,-0.00461,22.88424,29.62381,,,,,,,,,,,,
7.0,3.0,50.00277,15574,-857.903,77.84085,-27144.1,1e-05,-0.00026,50.03237,216.384,,0.0,-0.00144,-0.00456,22.8843,29.62358,,,,,,,,,,,,
7.0,3.0,50.00367,15574,-857.904,77.84,-27144.134,0.00025,-0.00025,50.03352,216.762,,0.0,-0.00147,-0.00455,22.88416,29.62449,,,,,,,,,,,,
7.0,3.0,50.00276,15574.1,-857.903,77.84085,-27144.134,-2e-05,0.00011,50.0323,216.277,,0.0,-0.00152,-0.00454,22.88422,29.62358,,,,,,,,,,,,
7.0,3.0,50.00262,15574.1,-857.904,77.84198,-27144.1,-0.00013,0.0003,50.03211,216.2172,,0.0,-0.00154,-0.00455,22.88432,29.62343,,,,,,,,,,,,
7.0,3.0,50.00356,15574.2,-857.904,77.84021,-27144.1,6e-05,-0.00048,50.03332,216.62,,0.0,-0.00151,-0.00457,22.8844,29.62438,,,,,,,,,,,,
7.0,3.0,50.0029,15574.2,-857.903,77.84199,-27144.134,0.00019,-0.00036,50.03239,216.205,,0.0,-0.00148,-0.00453,22.8841,29.62371,,,,,,,,,,,,
7.0,3.0,50.00239,15574.3,-857.904,77.841,-27144.134,-0.00032,4e-05,50.03178,216.048,,0.0,-0.00152,-0.00454,22.88422,29.62321,,,,,,,,,,,,
7.0,3.0,50.00335,15574.3,-857.903,77.84199,-27144.133,-6e-05,-4e-05,50.03302,216.479,,0.0,-0.00151,-0.00451,22.88425,29.62417,,,,,,,,,,,,
7.0,3.0,50.00303,15574.4,-857.904,77.84,-27144.1,0.00028,-0.00024,50.03253,216.216,,0.0,-0.00149,-0.00457,22.88437,29.62385,,,,,,,,,,,,
7.0,3.0,50.00244,15574.4,-857.904,77.841,-27144.135,-0.00047,0.0001,50.03174,215.912,,0.0,-0.00154,-0.00456,22.88407,29.62325,,,,,,,,,,,,
7.0,3.0,50.00319,15574.5,-857.904,77.84015,-27144.1,-0.00032,-0.00012,50.03279,216.371,,0.0,-0.00149,-0.00452,22.88432,29.62401,,,,,,,,,,,,
7.0,3.0,50.00291,15574.6,-857.904,77.841,-27144.133,0.00017,-0.00041,50.03232,216.086,,0.0,-0.0015,-0.00454,22.88428,29.62372,,,,,,,,,,,,
7.0,3.0,50.00242,15574.6,-857.904,77.84015,-27144.1,-0.00068,-0.00034,50.03167,215.825,,0.0,-0.00149,-0.00454,22.88414,29.62324,,,,,,,,,,,,
7.0,3.0,50.00308,15574.7,-857.903,77.841,-27144.135,0.00022,0.00029,50.0326,216.25,,0.0,-0.00148,-0.00456,22.88419,29.6239,,,,,,,,,,,,
7.0,3.0,50.00288,15574.7,-857.904,77.84,-27144.134,0.0,-2e-05,50.03224,216.008,,0.0,-0.0015,-0.00455,22.88455,29.6237,,,,,,,,,,,,
7.0,3.0,50.00214,15574.8,-857.903,77.84099,-27144.134,0.00028,0.00019,50.03126,215.634,,0.0,-0.0015,-0.00455,22.88421,29.62295,,,,,,,,,,,,
7.0,3.0,50.0033,15574.8,-857.903,77.84015,-27144.133,-1e-05,0.00048,50.0328,216.215,,0.0,-0.00145,-0.00456,22.88436,29.62412,,,,,,,,,,,,
7.0,3.0,50.00306,15574.9,-857.903,77.84,-27144.134,-2e-05,-0.00013,50.03238,215.941,,0.0,-0.00151,-0.0045,22.8843,29.62388,,,,,,,,,,,,
7.0,3.0,50.00224,15574.9,-857.904,77.841,-27144.133,-0.00025,-0.00066,50.03134,215.591,,0.0,-0.00154,-0.00449,22.88431,29.62306,,,,,,,,,,,,
7.0,3.0,50.00325,15575,-857.904,77.841,-27144.134,0.00018,0.00011,50.03269,216.135,,0.0,-0.0015,-0.00454,22.88438,29.62406,,,,,,,,,,,,
7.0,4.0,49.68925,15575.1,-857.903,77.841,-27144.1,-0.00014,0.00041,49.70364,192.747,,0.0,-0.00143,-0.00448,22.88436,29.31007,,,,,,,,,,,,
7.0,4.0,48.86733,15575.1,-857.903,77.841,-27144.132,1e-05,-1e-05,48.85571,152.325,,0.0,-0.0015,-0.00454,22.88414,28.48814,,,,,,,,,,,,
7.0,4.0,47.73346,15575.2,-857.903,77.84085,-27144.1,0.00038,0.00055,47.69718,114.001,,0.0,-0.00149,-0.00453,22.88401,27.35428,,,,,,,,,,,,
7.0,4.0,46.42223,15575.2,-857.902,77.841,-27144.135,-6e-05,0.00024,46.36657,83.87459,,0.0,-0.00151,-0.0045,22.88435,26.04305,,,,,,,,,,,,
7.0,4.0,45.02385,15575.3,-857.9039,77.84,-27144.1,0.00037,-0.00055,44.95586,64.71686,,0.0,-0.00148,-0.00451,22.88459,24.64467,,,,,,,,,,,,
7.0,4.0,43.59299,15575.3,-857.904,77.84001,-27144.134,-0.00016,0.00026,43.51817,54.12339,,0.0,-0.00148,-0.0045,22.88439,23.2138,,,,,,,,,,,,
7.0,4.0,42.15334,15575.4,-857.904,77.8409,-27144.134,-0.00015,0.00025,42.07355,46.38857,,0.0,-0.00149,-0.00446,22.88465,21.77416,,,,,,,,,,,,
7.0,4.0,40.71544,15575.4,-857.903,77.841,-27144.133,-0.00024,0.00017,40.63153,39.9867,,0.0,-0.00148,-0.00448,22.88431,20.33626,,,,,,,,,,,,
7.0,4.0,39.28668,15575.5,-857.904,77.841,-27144.1,0.00011,0.00044,39.19949,34.87749,,0.0,-0.00144,-0.00451,22.8844,18.9075,,,,,,,,,,,,
7.0,4.0,37.86223,15575.5,-857.904,77.841,-27144.134,0.00024,0.00034,37.77172,29.73413,,0.0,-0.00144,-0.00448,22.88427,17.48304,,,,,,,,,,,,
7.0,4.0,36.44239,15575.6,-857.903,77.841,-27144.134,4e-05,0.00022,36.34869,24.76263,,0.0,-0.00145,-0.00447,22.88436,16.06321,,,,,,,,,,,,
7.0,4.0,35.029,15575.7,-857.904,77.841,-27144.134,0.00035,0.00012,34.93254,20.48639,,0.0,-0.00146,-0.0045,22.8843,14.64982,,,,,,,,,,,,
7.0,4.0,33.61909,15575.7,-857.904,77.841,-27144.134,-0.00019,0.00021,33.51962,15.80169,,0.0,-0.00145,-0.00449,22.88444,13.23991,,,,,,,,,,,,
7.0,4.0,32.21042,15575.8,-857.904,77.841,-27144.134,-0.00017,0.00046,32.10808,11.3487,,0.0,-0.00151,-0.00452,22.88453,11.83124,,,,,,,,,,,,
7.0,4.0,30.80616,15575.8,-857.903,77.84,-27144.134,-6e-05,0.00024,30.70121,7.30082,,0.0,-0.00148,-0.00452,22.88434,10.42698,,,,,,,,,,,,
7.0,4.0,29.40369,15575.9,-857.904,77.842,-27144.135,-0.00045,0.00027,29.29612,3.22948,,0.0,-0.00148,-0.00454,22.88421,9.0245,,,,,,,,,,,,
7.0,4.0,28.00157,15575.9,-857.9038,77.84085,-27144.1,0.00013,0.00018,27.89166,-0.42103,,0.0,-0.0015,-0.00455,22.88435,7.62239,,,,,,,,,,,,
7.0,4.0,26.60148,15576,-857.905,77.84,-27144.135,-0.00015,2e-05,26.4912,-1.00038,,0.0,-0.00148,-0.0046,22.88444,6.2223,,,,,,,,,,,,
7.0,4.0,25.2038,15576,-857.904,77.84015,-27144.135,9e-05,0.0003,25.09344,-1.11893,,0.0,-0.00151,-0.00458,22.88451,4.82462,,,,,,,,,,,,
7.0,4.0,23.80557,15576.1,-857.904,77.841,-27144.133,-0.00023,0.00044,23.6951,-1.27716,,0.0,-0.00149,-0.00457,22.88459,3.42638,,,,,,,,,,,,
7.0,4.0,22.41065,15576.2,-857.903,77.84085,-27144.134,-2e-05,0.00047,22.30008,-1.42742,,0.0,-0.00146,-0.00458,22.88445,2.03146,,,,,,,,,,,,
7.0,4.0,21.01721,15576.2,-857.903,77.84001,-27144.134,0.00042,0.00057,20.90656,-1.5622,,0.0,-0.00144,-0.00458,22.88456,0.63803,,,,,,,,,,,,
7.0,4.0,19.62282,15576.3,-857.904,77.841,-27144.1,-3e-05,-0.00023,19.51208,-1.71867,,0.0,-0.00144,-0.00452,22.88451,-0.75636,,,,,,,,,,,,
7.0,4.0,18.23028,15576.3,-857.903,77.84,-27144.134,-0.00022,-0.0,18.11944,-1.86029,,0.0,-0.00145,-0.00459,22.88454,-2.14891,,,,,,,,,,,,
7.0,4.0,16.84004,15576.4,-857.9031,77.84,-27144.1,0.00035,0.00036,16.72911,-2.00117,,0.0,-0.00146,-0.00457,22.8845,-3.53915,,,,,,,,,,,,
7.0,4.0,15.4484,15576.4,-857.904,77.84,-27144.134,-0.00015,5e-05,15.33737,-2.15743,,0.0,-0.00141,-0.00455,22.8845,-4.93078,,,,,,,,,,,,
7.0,4.0,14.05874,15576.5,-857.904,77.84085,-27144.133,-3e-05,0.00039,13.94762,-2.29158,,0.0,-0.00146,-0.00456,22.88458,-6.32044,,,,,,,,,,,,
7.0,4.0,12.67073,15576.5,-857.904,77.841,-27144.133,0.00017,0.00041,12.55953,-2.42651,,0.0,-0.00144,-0.00455,22.88432,-7.70845,,,,,,,,,,,,
7.0,4.0,11.281,15576.6,-857.904,77.84015,-27144.1,0.00014,8e-05,11.16969,-2.59427,,0.0,-0.00144,-0.00457,22.88452,-9.09818,,,,,,,,,,,,
7.0,4.0,9.89423,15576.6,-857.903,77.84,-27144.133,0.00037,0.00023,9.78283,-2.72591,,0.0,-0.00148,-0.00457,22.88447,-10.48496,,,,,,,,,,,,
7.0,4.0,8.50935,15576.7,-857.9032,77.84015,-27144.1,0.00026,0.00023,8.39787,-2.85693,,0.0,-0.00148,-0.00454,22.88442,-11.86983,,,,,,,,,,,,
7.0,4.0,7.12303,15576.8,-857.904,77.84001,-27144.134,-0.00019,0.00037,7.01144,-3.0233,,0.0,-0.00146,-0.00451,22.88437,-13.25616,,,,,,,,,,,,
7.0,4.0,5.73928,15576.8,-857.9049,77.84015,-27144.1,-0.00018,0.00033,5.62761,-3.15474,,0.0,-0.00148,-0.00452,22.88445,-14.6399,,,,,,,,,,,,
7.0,4.0,4.35802,15576.9,-857.904,77.841,-27144.134,0.00033,0.0,4.24626,-3.29455,,0.0,-0.0015,-0.00452,22.88449,-16.02116,,,,,,,,,,,,
7.0,4.0,2.9758,15576.9,-857.904,77.841,-27144.1,-0.0001,-4e-05,2.86394,-3.44585,,0.0,-0.0015,-0.00448,22.88444,-17.40338,,,,,,,,,,,,
7.0,4.0,1.59786,15577,-857.904,77.84099,-27144.133,0.00018,0.00046,1.48591,-3.58272,,0.0,-0.00148,-0.00444,22.88448,-18.78133,,,,,,,,,,,,
7.0,4.0,0.4239,15577,-857.903,77.8401,-27144.1,-0.00018,0.00043,0.31188,-3.69433,,0.0,-0.00152,-0.00453,22.88448,-19.95528,,,,,,,,,,,,
7.0,4.0,0.2108,15577.1,-857.904,77.84015,-27144.134,-0.00025,-8e-05,0.09877,-3.71356,,0.0,-0.00151,-0.00451,22.88451,-20.16838,,,,,,,,,,,,