File: dataset_example/processed_data/ForceRelax_example/data/data_1_Measurements/GMM Fitting Results/data_1_3_GMM Fit.csv
Index [#],Phase [#],Displacement [um],Time [s],Pos X [um],Pos Y [um],Pos Z [um],Piezo X [um],Piezo Y [um],Piezo Z [um],Force A [uN],Force B [uN],Gripper [V],Voltage A [V],Voltage B [V],Temperature [oC],Sample Displacement [um],Filtered time [uN},Filtered force [uN],SG Force [uN],Est Force 2nd derivative,Filtered displacement [um],Sel Time [s],Sel Force [N],Sel Modulus Uncorrected [Pa],Sel Modulus Corrected [Pa],Sel Modulus GMM Fit [Pa],Sel Time Normalised [s m-2],Sel Force Normalised []
2.0,2.0,0.00522,15454.5,-357.906,-922.164,-27141.281,0.00014,-0.00047,-0.02797,-0.0859,,0.0,-0.00146,-0.00454,22.87088,6.46483,15454.5,-0.0859,-0.0852171,0.000369154,-0.02797,0.0,0.000278879,128807,128807,130127,0.0,1.0
2.0,2.0,0.50502,15454.6,-357.905,-922.163,-27141.282,-7e-05,-0.00039,0.47186,-0.03422,,0.0,-0.00146,-0.00454,22.8708,6.96463,15454.6,-0.03422,-0.0404737,0.000369154,0.47186,0.055,0.0002673973,123504,123504,123044,6421553543033189.0,0.823732
2.0,2.0,1.46851,15454.6,-357.906,-922.164,-27141.282,4e-05,0.00023,1.43541,0.04632,,0.0,-0.00143,-0.00456,22.8709,7.92813,15454.6,0.04632,0.050346,0.000189362,1.43541,0.11,0.000255971,118226,118226,118404,1.28431e+16,0.648313
2.0,2.0,2.68466,15454.7,-357.908,-922.164,-27141.283,-4e-05,-8e-05,2.65163,0.15742,,0.0,-0.00154,-0.0045,22.87094,9.14427,15454.7,0.15742,0.166122,0.000125103,2.65163,0.165,0.000249324,115156,115156,115328,1.92647e+16,0.546265
2.0,2.0,4.05449,15454.7,-357.906,-922.163,-27141.284,0.0001,-6e-05,4.02154,0.28833,,0.0,-0.00147,-0.00453,22.87089,10.5141,15454.7,0.28833,0.294283,3.33463e-05,4.02154,0.22,0.000245198,113251,113251,113257,2.56862e+16,0.482924
2.0,2.0,5.47579,15454.8,-357.907,-922.1638,-27141.285,8e-05,-0.00037,5.44293,0.42809,,0.0,-0.00145,-0.00451,22.87097,11.9354,15454.8,0.42809,0.425251,1.6317e-05,5.44293,0.275,0.000241801,111681,111681,111832,3.21078e+16,0.430763
2.0,2.0,6.90482,15454.8,-357.907,-922.164,-27141.284,0.00013,-0.00066,6.87204,0.5587,,0.0,-0.00147,-0.00455,22.87089,13.36443,15454.8,0.5587,0.556996,-6.41077e-05,6.87204,0.33,0.000239977,110839,110839,110825,3.85293e+16,0.402766
2.0,2.0,8.33002,15454.9,-357.907,-922.163,-27141.285,-0.00027,-0.00035,8.29732,0.67966,,0.0,-0.0015,-0.00454,22.87098,14.78963,15454.9,0.67966,0.681789,-0.000121898,8.29732,0.385,0.000238759,110276,110276,110089,4.49509e+16,0.384061
2.0,2.0,9.75092,15455,-357.907,-922.164,-27141.286,-0.00015,-0.00028,9.71829,0.7904,,0.0,-0.00148,-0.00454,22.87104,16.21053,15455,0.7904,0.790481,-0.000131531,9.71829,0.44,0.000237158,109537,109537,109531,5.13724e+16,0.359496
2.0,2.0,11.16227,15455,-357.906,-922.163,-27141.3,-0.00028,-0.00024,11.12971,0.88597,,0.0,-0.00148,-0.00453,22.871,17.62189,15455,0.88597,0.885398,8.02644e-05,11.12971,0.495,0.000236282,109133,109133,109091,5.7794e+16,0.346048
2.0,2.0,12.56901,15455.1,-357.907,-922.163,-27141.286,-0.00021,8e-05,12.53651,0.98792,,0.0,-0.00157,-0.00452,22.87081,19.02862,15455.1,0.98792,0.986781,-1.43997e-05,12.53651,0.55,0.0002357998,108910,108910,108730,6.42155e+16,0.338638
2.0,2.0,13.97283,15455.1,-357.906,-922.164,-27141.3,-0.0001,3e-05,13.9404,1.09479,,0.0,-0.00147,-0.00449,22.87097,20.43244,15455.1,1.09479,1.08431,8.13169e-05,13.9404,0.605,0.000234511,108315,108315,108424,7.06371e+16,0.318859
2.0,2.0,15.37065,15455.2,-357.906,-922.164,-27141.289,2e-05,-0.00083,15.33828,1.19084,,0.0,-0.00144,-0.0045,22.87097,21.83026,15455.2,1.19084,1.186,2.1461e-06,15.33828,0.66,0.000234163,108154,108154,108156,7.70586e+16,0.313503
2.0,2.0,16.765,15455.2,-357.907,-922.163,-27141.3,-6e-05,-0.00041,16.7327,1.29036,,0.0,-0.00146,-0.0045,22.87113,23.22461,15455.2,1.29036,1.28749,1.91246e-05,16.7327,0.715,0.0002339651,108063,108063,107916,8.34802e+16,0.310471
2.0,2.0,18.16006,15455.3,-357.906,-922.164,-27141.29,-4e-05,0.00014,18.12782,1.38767,,0.0,-0.00147,-0.00457,22.8709,24.61967,15455.3,1.38767,1.39024,1.57149e-05,18.12782,0.77,0.000232845,107545,107545,107697,8.99017e+16,0.293279
2.0,2.0,19.54907,15455.3,-357.907,-922.1631,-27141.29,-0.0,9e-05,19.5169,1.49868,,0.0,-0.00147,-0.00452,22.8708,26.00868,15455.3,1.49868,1.49362,-5.78428e-05,19.5169,0.825,0.000232735,107495,107495,107495,9.63233e+16,0.291592
2.0,2.0,20.93701,15455.4,-357.906,-922.163,-27141.29,-0.00015,-0.00029,20.9049,1.59621,,0.0,-0.00147,-0.00454,22.87089,27.39662,15455.4,1.59621,1.5942,1.98486e-05,20.9049,0.88,0.000232563,107415,107415,107306,1.02745e+17,0.288945
2.0,2.0,22.32548,15455.5,-357.907,-922.163,-27141.3,-5e-05,0.00037,22.29344,1.69234,,0.0,-0.00146,-0.00453,22.8711,28.78509,15455.5,1.69234,1.69621,3.55286e-06,22.29344,0.935,0.0002316191,106979,106979,107129,1.09166e+17,0.274455
2.0,2.0,23.70967,15455.5,-357.906,-922.164,-27141.292,-1e-05,-0.00019,23.67769,1.79128,,0.0,-0.00145,-0.00461,22.87103,30.16928,15455.5,1.79128,1.79864,-3.62115e-06,23.67769,0.99,0.000231531,106938,106938,106961,1.15588e+17,0.273096
2.0,2.0,25.09286,15455.6,-357.907,-922.164,-27141.292,0.00014,-0.00033,25.06095,1.90379,,0.0,-0.00145,-0.00457,22.87126,31.55247,15455.6,1.90379,1.83718,0.00583739,25.06095,1.045,0.000231478,106914,106914,106803,1.2201e+17,0.272287
2.0,2.0,26.47679,15455.6,-357.906,-922.163,-27141.292,0.00013,0.00027,26.44523,2.44466,,0.0,-0.00149,-0.00458,22.87089,32.9364,15455.6,2.44466,2.76319,0.0596044,26.44523,1.1,0.000230621,106518,106518,106652,1.28431e+17,0.259135
2.0,2.0,27.85306,15455.7,-357.907,-922.164,-27141.292,-0.00014,-4e-05,27.82692,10.87133,,0.0,-0.00144,-0.00457,22.87112,34.31267,15455.7,10.87133,10.8004,0.0431181,27.82692,1.155,0.000230343,106390,106390,106508,1.34853e+17,0.254865
2.0,2.0,29.23019,15455.7,-357.907,-922.164,-27141.293,0.00041,-0.0006,29.21268,24.2877,,0.0,-0.00146,-0.00452,22.8711,35.6898,15455.7,24.2877,24.3923,0.0154643,29.21268,1.21,0.000230465,106446,106446,106371,1.41274e+17,0.256744
2.0,2.0,30.60908,15455.8,-357.907,-922.1639,-27141.292,0.00015,-0.00033,30.60157,39.81823,,0.0,-0.00149,-0.00454,22.87107,37.06869,15455.8,39.81823,39.6828,0.0001708,30.60157,1.265,0.000229916,106193,106193,106239,1.47696e+17,0.248315
2.0,2.0,31.98637,15455.8,-357.905,-922.164,-27141.293,-0.00027,-0.00035,31.98861,54.9736,,0.0,-0.00149,-0.00457,22.8711,38.44598,15455.8,54.9736,55.0199,0.0098307,31.98861,1.32,0.000229462,105983,105983,106114,1.54117e+17,0.241339
2.0,2.0,33.36277,15455.9,-357.906,-922.164,-27141.3,5e-05,-0.00036,33.37562,71.45277,,0.0,-0.00144,-0.00458,22.87112,39.82238,15455.9,71.45277,71.5522,0.0063806,33.37562,1.375,0.000229658,106073,106073,105994,1.60539e+17,0.244353
2.0,2.0,34.74085,15455.9,-357.908,-922.163,-27141.294,0.00016,-6e-05,34.76498,88.99636,,0.0,-0.00148,-0.00454,22.87114,41.20046,15455.9,88.99636,88.8306,-0.000716738,34.76498,1.43,0.000229214,105868,105868,105879,1.6696e+17,0.237537
2.0,2.0,36.11586,15456,-357.908,-922.164,-27141.3,-0.00028,-0.00032,36.15085,105.863,,0.0,-0.00149,-0.00454,22.87127,42.57547,15456,105.863,106.035,0.00218167,36.15085,1.485,0.000228743,105651,105651,105769,1.73382e+17,0.230303
2.0,2.0,37.49119,15456.1,-357.906,-922.163,-27141.293,0.00015,-0.00041,37.5375,123.456,,0.0,-0.00148,-0.00454,22.87115,43.9508,15456.1,123.456,123.505,0.00296631,37.5375,1.54,0.000228917,105731,105731,105664,1.79803e+17,0.232967
2.0,2.0,38.86637,15456.1,-357.905,-922.1629,-27141.295,9e-05,-0.00029,38.92427,141.457,,0.0,-0.00147,-0.00454,22.87123,45.32599,15456.1,141.457,141.335,0.00259043,38.92427,1.595,0.000228562,105567,105567,105562,1.86225e+17,0.227526
2.0,2.0,40.23973,15456.2,-357.907,-922.164,-27141.294,-0.00028,-0.00028,40.30915,159.3709,,0.0,-0.0015,-0.0045,22.87116,46.69934,15456.2,159.3709,159.459,0.00385165,40.30915,1.65,0.000228174,105388,105388,105465,1.92647e+17,0.22156
2.0,2.0,41.61245,15456.2,-357.906,-922.163,-27141.3,-0.00017,-0.00035,41.69379,177.878,,0.0,-0.00145,-0.00451,22.87094,48.07207,15456.2,177.878,178.03,0.00185107,41.69379,1.705,0.000228371,105479,105479,105371,1.99068e+17,0.224583
2.0,2.0,42.98672,15456.3,-357.906,-922.162,-27141.3,0.0002,-0.00021,43.08039,197.048,,0.0,-0.00147,-0.00454,22.87113,49.44633,15456.3,197.048,196.843,0.00280478,43.08039,1.76,0.000227963,105290,105290,105281,2.0549e+17,0.21833
2.0,2.0,44.35751,15456.3,-357.907,-922.1639,-27141.296,0.00024,1e-05,44.46329,215.872,,0.0,-0.00148,-0.00452,22.87118,50.81712,15456.3,215.872,215.956,0.00296517,44.46329,1.815,0.000227535,105093,105093,105194,2.11911e+17,0.211757
2.0,2.0,45.72772,15456.4,-357.907,-922.164,-27141.296,-4e-05,-0.00018,45.84599,235.281,,0.0,-0.00143,-0.00452,22.87099,52.18733,15456.4,235.281,235.403,0.00173011,45.84599,1.87,0.000227766,105199,105199,105110,2.18333e+17,0.215303
2.0,2.0,47.09785,15456.4,-357.9061,-922.164,-27141.296,0.00034,-0.00024,47.22899,255.274,,0.0,-0.00148,-0.00453,22.87122,53.55746,15456.4,255.274,255.079,0.00542266,47.22899,1.925,0.000227419,105039,105039,105030,2.24754e+17,0.209967
2.0,2.0,48.46511,15456.5,-357.906,-922.163,-27141.297,0.00015,-0.00059,48.60914,275.31,,0.0,-0.00148,-0.00455,22.8711,54.92472,15456.5,275.31,275.195,0.00211507,48.60914,1.98,0.000226991,104841,104841,104952,2.31176e+17,0.203402
2.0,3.0,49.52612,15456.6,-357.906,-922.1639,-27141.296,-0.00028,-3e-05,49.67095,276.554,,0.0,-0.00146,-0.00449,22.87106,55.98573,,,,,,2.035,0.000227329,104997,104997,104877,2.37597e+17,0.208591
2.0,3.0,49.92509,15456.6,-357.906,-922.164,-27141.297,-1e-05,5e-05,50.06184,263.985,,0.0,-0.00144,-0.00452,22.87116,56.3847,,,,,,2.09,0.000226842,104772,104772,104804,2.44019e+17,0.201114
2.0,3.0,50.05211,15456.7,-357.9069,-922.163,-27141.3,0.00045,-0.00027,50.18319,255.188,,0.0,-0.00143,-0.00451,22.87129,56.51172,,,,,,2.145,0.000226605,104663,104663,104734,2.50441e+17,0.197484
2.0,3.0,50.08152,15456.7,-357.907,-922.164,-27141.297,-0.00023,-8e-05,50.20903,249.628,,0.0,-0.00147,-0.0045,22.87115,56.54113,,,,,,2.2,0.000226917,104807,104807,104666,2.56862e+17,0.20226
2.0,3.0,50.08008,15456.8,-357.906,-922.1639,-27141.3,0.00022,0.00034,50.20571,246.699,,0.0,-0.00145,-0.00449,22.87105,56.5397,,,,,,2.255,0.000226358,104549,104549,104600,2.63284e+17,0.193679
2.0,3.0,50.06818,15456.8,-357.906,-922.164,-27141.296,0.00024,0.0,50.19209,244.03,,0.0,-0.00147,-0.00452,22.87107,56.52779,,,,,,2.31,0.0002261943,104473,104473,104537,2.69705e+17,0.191172
2.0,3.0,50.0559,15456.9,-357.907,-922.164,-27141.3,-2e-05,7e-05,50.17853,242.045,,0.0,-0.00149,-0.00449,22.87122,56.51552,,,,,,2.365,0.000226534,104630,104630,104475,2.76127e+17,0.196387
2.0,3.0,50.04674,15456.9,-357.907,-922.164,-27141.297,-0.00018,0.00045,50.16881,241.174,,0.0,-0.00148,-0.00451,22.87127,56.50636,,,,,,2.42,0.000225948,104360,104360,104415,2.82548e+17,0.187391
2.0,3.0,50.03947,15457,-357.906,-922.164,-27141.3,0.00028,-3e-05,50.16086,240.109,,0.0,-0.00142,-0.00452,22.87124,56.49909,,,,,,2.475,0.000225824,104302,104302,104357,2.8897e+17,0.185491
2.0,3.0,50.03224,15457,-357.906,-922.164,-27141.297,0.00029,-0.00077,50.15274,238.733,,0.0,-0.00147,-0.00454,22.87119,56.49185,,,,,,2.53,0.000226274,104510,104510,104300,2.95391e+17,0.192393
2.0,3.0,50.02916,15457.1,-357.907,-922.163,-27141.3,-0.00024,0.00033,50.14965,238.722,,0.0,-0.00142,-0.00453,22.87116,56.48877,,,,,,2.585,0.000225675,104233,104233,104245,3.01813e+17,0.183196
2.0,3.0,50.02567,15457.2,-357.907,-922.164,-27141.297,-1e-05,-7e-05,50.14564,237.919,,0.0,-0.00149,-0.00452,22.87122,56.48528,,,,,,2.64,0.000225424,104118,104118,104191,3.08235e+17,0.179351
2.0,3.0,50.02161,15457.2,-357.9069,-922.164,-27141.298,0.00015,-8e-05,50.14085,236.77,,0.0,-0.00145,-0.00452,22.8712,56.48123,,,,,,2.695,0.000225821,104301,104301,104139,3.14656e+17,0.185441
2.0,3.0,50.02074,15457.3,-357.908,-922.164,-27141.299,-0.00026,0.00035,50.14008,236.928,,0.0,-0.00144,-0.0046,22.87107,56.48036,,,,,,2.75,0.000225263,104043,104043,104088,3.21078e+17,0.176878
2.0,3.0,50.01878,15457.3,-357.906,-922.164,-27141.298,-0.00023,0.00019,50.13766,236.219,,0.0,-0.00144,-0.00449,22.87111,56.47839,,,,,,2.805,0.000225082,103960,103960,104038,3.27499e+17,0.174101
2.0,3.0,50.01652,15457.4,-357.906,-922.163,-27141.298,-4e-05,-0.00072,50.13487,235.393,,0.0,-0.00142,-0.00455,22.87124,56.47613,,,,,,2.86,0.000225494,104150,104150,103990,3.33921e+17,0.180426
2.0,3.0,50.01645,15457.4,-357.907,-922.164,-27141.298,0.00015,0.00014,50.13488,235.517,,0.0,-0.00145,-0.00451,22.87125,56.47606,,,,,,2.915,0.000224941,103894,103894,103942,3.40342e+17,0.171929
2.0,3.0,50.01519,15457.5,-357.907,-922.164,-27141.298,-8e-05,9e-05,50.13323,234.9162,,0.0,-0.0015,-0.00456,22.87126,56.4748,,,,,,2.97,0.000224792,103826,103826,103896,3.46764e+17,0.169649
2.0,3.0,50.01352,15457.5,-357.905,-922.164,-27141.3,0.00017,5e-05,50.13111,234.225,,0.0,-0.00143,-0.00452,22.87129,56.47313,,,,,,3.025,0.00022516,103996,103996,103851,3.53185e+17,0.175296
2.0,3.0,50.01353,15457.6,-357.908,-922.164,-27141.298,0.00029,0.00044,50.1312,234.339,,0.0,-0.00148,-0.00454,22.87128,56.47314,,,,,,3.08,0.000224635,103753,103753,103807,3.59607e+17,0.167235
2.0,3.0,50.01318,15457.7,-357.906,-922.164,-27141.298,-0.00026,0.00058,50.13061,233.97,,0.0,-0.00143,-0.00455,22.87121,56.47279,,,,,,3.135,0.000224462,103673,103673,103763,3.66029e+17,0.16458
2.0,3.0,50.01136,15457.7,-357.907,-922.164,-27141.298,-6e-05,-0.00047,50.12831,233.2163,,0.0,-0.00143,-0.00458,22.87126,56.47097,,,,,,3.19,0.000224878,103865,103865,103721,3.7245e+17,0.170964
2.0,3.0,50.01182,15457.8,-357.9059,-922.164,-27141.298,0.0004,0.00023,50.1289,233.42,,0.0,-0.00144,-0.00451,22.87135,56.47143,,,,,,3.245,0.000224413,103651,103651,103679,3.78872e+17,0.163829
2.0,3.0,50.01172,15457.8,-357.905,-922.164,-27141.297,-0.00031,-4e-05,50.12869,233.243,,0.0,-0.00149,-0.00453,22.87129,56.47134,,,,,,3.3,0.000224188,103547,103547,103639,3.85293e+17,0.160374
2.0,3.0,50.01043,15457.9,-357.907,-922.164,-27141.3,-5e-05,0.00011,50.12695,232.556,,0.0,-0.00154,-0.00454,22.87151,56.47004,,,,,,3.355,0.00022447,103677,103677,103599,3.91715e+17,0.164698
2.0,3.0,50.01018,15457.9,-357.906,-922.164,-27141.299,0.00065,-0.00031,50.12669,232.529,,0.0,-0.00153,-0.00452,22.87144,56.4698,,,,,,3.41,0.00022424,103571,103571,103559,3.98136e+17,0.161172
2.0,3.0,50.01052,15458,-357.906,-922.163,-27141.3,0.00057,-0.0,50.12705,232.566,,0.0,-0.00152,-0.00452,22.87133,56.47013,,,,,,3.465,0.000223924,103425,103425,103521,4.04558e+17,0.156316
2.0,3.0,50.00954,15458,-357.908,-922.164,-27141.298,0.00013,0.00026,50.12568,231.959,,0.0,-0.00157,-0.0045,22.8712,56.46916,,,,,,3.52,0.000224215,103559,103559,103483,4.10979e+17,0.160784
2.0,3.0,50.00934,15458.1,-357.9069,-922.164,-27141.299,-0.00094,0.00011,50.12541,231.862,,0.0,-0.00144,-0.00452,22.87134,56.46895,,,,,,3.575,0.000223981,103451,103451,103446,4.17401e+17,0.157198
2.0,3.0,50.00969,15458.1,-357.906,-922.165,-27141.298,0.00069,8e-05,50.12577,231.874,,0.0,-0.00147,-0.00453,22.87122,56.4693,,,,,,3.63,0.000223637,103292,103292,103409,4.23823e+17,0.151918
2.0,3.0,50.00844,15458.2,-357.9071,-922.164,-27141.3,-0.00101,-7e-05,50.12409,231.192,,0.0,-0.00143,-0.00453,22.87125,56.46806,,,,,,3.685,0.000224036,103476,103476,103373,4.30244e+17,0.15803
2.0,3.0,50.0085,15458.3,-357.906,-922.165,-27141.299,-1e-05,1e-05,50.12419,231.259,,0.0,-0.00143,-0.00452,22.87158,56.46812,,,,,,3.74,0.000223828,103381,103381,103338,4.36666e+17,0.154847
2.0,3.0,50.00879,15458.3,-357.907,-922.164,-27141.299,1e-05,-0.0001,50.12452,231.324,,0.0,-0.00147,-0.00451,22.87142,56.46841,,,,,,3.795,0.000223423,103194,103194,103303,4.43087e+17,0.148632
2.0,3.0,50.00782,15458.4,-357.906,-922.164,-27141.299,-5e-05,0.00029,50.12312,230.653,,0.0,-0.00148,-0.00451,22.87133,56.46743,,,,,,3.85,0.000223649,103298,103298,103268,4.49509e+17,0.152094
2.0,3.0,50.00769,15458.4,-357.906,-922.164,-27141.3,-0.00013,0.00012,50.123,230.667,,0.0,-0.00146,-0.00451,22.87143,56.4673,,,,,,3.905,0.000223613,103281,103281,103234,4.5593e+17,0.151542
2.0,3.0,50.00816,15458.5,-357.906,-922.164,-27141.3,5e-05,-0.00014,50.12354,230.775,,0.0,-0.0014,-0.00451,22.87153,56.46778,,,,,,3.96,0.000223147,103066,103066,103201,4.62352e+17,0.144394
2.0,3.0,50.00693,15458.5,-357.9078,-922.164,-27141.3,-6e-05,-8e-05,50.12184,230.044,,0.0,-0.00143,-0.00449,22.8714,56.46655,,,,,,4.015,0.000223521,103239,103239,103168,4.68773e+17,0.150133
2.0,3.0,50.00767,15458.6,-357.907,-922.164,-27141.3,-0.00042,0.00012,50.12277,230.34,,0.0,-0.00144,-0.00456,22.87144,56.46728,,,,,,4.07,0.000223393,103179,103179,103135,4.75195e+17,0.148161
2.0,3.0,50.00812,15458.6,-357.9069,-922.164,-27141.3,0.0004,0.00011,50.12324,230.3693,,0.0,-0.0015,-0.00455,22.87138,56.46774,,,,,,4.125,0.000222851,102929,102929,103103,4.81617e+17,0.139844
2.0,3.0,50.00676,15458.7,-357.907,-922.165,-27141.301,-0.00011,-0.00058,50.12143,229.69,,0.0,-0.00149,-0.00454,22.87141,56.46637,,,,,,4.18,0.00022329,103132,103132,103072,4.88038e+17,0.146589
2.0,3.0,50.00722,15458.8,-357.9069,-922.164,-27141.299,-7e-05,0.00051,50.12207,229.959,,0.0,-0.00146,-0.00453,22.87134,56.46683,,,,,,4.235,0.000223227,103103,103103,103040,4.9446e+17,0.145618
2.0,3.0,50.00759,15458.8,-357.907,-922.165,-27141.299,0.00034,-0.00032,50.12242,229.93,,0.0,-0.00149,-0.00458,22.87138,56.4672,,,,,,4.29,0.0002226708,102846,102846,103009,5.00881e+17,0.137078
2.0,3.0,50.00607,15458.9,-357.907,-922.165,-27141.3,0.00016,-0.00047,50.12042,229.182,,0.0,-0.00149,-0.00449,22.87129,56.46568,,,,,,4.345,0.000223137,103061,103061,102979,5.07303e+17,0.144238
2.0,3.0,50.00668,15458.9,-357.907,-922.165,-27141.3,5e-05,0.00019,50.12122,229.475,,0.0,-0.00146,-0.00457,22.87153,56.4663,,,,,,4.4,0.000223036,103015,103015,102949,5.13724e+17,0.142686
2.0,3.0,50.00719,15459,-357.906,-922.164,-27141.3,-0.00022,0.0003,50.12173,229.472,,0.0,-0.00149,-0.00449,22.8713,56.4668,,,,,,4.455,0.000222591,102809,102809,102919,5.20146e+17,0.135853
2.0,3.0,50.0059,15459,-357.908,-922.163,-27141.3,0.00013,-0.00057,50.12,228.793,,0.0,-0.00143,-0.00448,22.87148,56.46551,,,,,,4.51,0.000223052,103022,103022,102889,5.26567e+17,0.142936
2.0,3.0,50.00679,15459.1,-357.907,-922.164,-27141.3,3e-05,0.00014,50.12116,229.202,,0.0,-0.00143,-0.00451,22.87152,56.46641,,,,,,4.565,0.000222851,102929,102929,102860,5.32989e+17,0.139844
2.0,3.0,50.00689,15459.1,-357.906,-922.163,-27141.301,0.0,0.00036,50.12121,229.136,,0.0,-0.00149,-0.00454,22.87143,56.4665,,,,,,4.62,0.000222208,102632,102632,102831,5.3941e+17,0.129968
2.0,3.0,50.00564,15459.2,-357.905,-922.164,-27141.3,0.0,-0.00016,50.11951,228.429,,0.0,-0.00145,-0.00452,22.87151,56.46525,,,,,,4.675,0.000222756,102886,102886,102803,5.45832e+17,0.138393
2.0,3.0,50.0062,15459.2,-357.906,-922.163,-27141.3,0.00016,0.00026,50.1203,228.807,,0.0,-0.00144,-0.00454,22.8715,56.46581,,,,,,4.73,0.000222599,102813,102813,102774,5.52254e+17,0.13597
2.0,3.0,50.0067,15459.3,-357.906,-922.164,-27141.3,-3e-05,4e-05,50.12082,228.828,,0.0,-0.00146,-0.00451,22.87155,56.46631,,,,,,4.785,0.00022211,102587,102587,102746,5.58675e+17,0.128475
2.0,3.0,50.00538,15459.4,-357.907,-922.164,-27141.301,2e-05,-0.00047,50.11905,228.118,,0.0,-0.00144,-0.00451,22.87133,56.46499,,,,,,4.84,0.000222666,102844,102844,102719,5.65097e+17,0.137011
2.0,3.0,50.00596,15459.4,-357.907,-922.164,-27141.302,0.00037,6e-05,50.11986,228.484,,0.0,-0.00141,-0.00453,22.87143,56.46557,,,,,,4.895,0.000222451,102745,102745,102691,5.71518e+17,0.133711
2.0,3.0,50.00625,15459.5,-357.906,-922.164,-27141.301,-7e-05,1e-05,50.12014,228.465,,0.0,-0.00147,-0.00452,22.87168,56.46586,,,,,,4.95,0.000221923,102501,102501,102664,5.7794e+17,0.125605
2.0,3.0,50.00513,15459.5,-357.9061,-922.164,-27141.3,0.0001,-0.00014,50.11862,227.839,,0.0,-0.00149,-0.00453,22.87162,56.46474,,,,,,5.005,0.000222357,102701,102701,102637,5.84361e+17,0.132259
2.0,3.0,50.00564,15459.6,-357.908,-922.164,-27141.3,5e-05,0.00044,50.11933,228.146,,0.0,-0.00146,-0.00457,22.87138,56.46526,,,,,,5.06,0.000222231,102643,102643,102611,5.90783e+17,0.130324
2.0,3.0,50.00618,15459.6,-357.907,-922.164,-27141.3,-8e-05,0.00023,50.11991,228.22,,0.0,-0.0015,-0.00452,22.87144,56.46579,,,,,,5.115,0.000221822,102454,102454,102584,5.97204e+17,0.124043
2.0,3.0,50.00494,15459.7,-357.907,-922.165,-27141.301,-0.00044,-0.0003,50.11821,227.516,,0.0,-0.0015,-0.00452,22.87155,56.46455,,,,,,5.17,0.000222224,102640,102640,102558,6.03626e+17,0.130218
2.0,3.0,50.00536,15459.7,-357.9061,-922.163,-27141.3,5e-05,-0.00012,50.11883,227.814,,0.0,-0.00155,-0.00455,22.87162,56.46497,,,,,,5.225,0.000222041,102555,102555,102532,6.10048e+17,0.12741
2.0,3.0,50.00579,15459.8,-357.907,-922.164,-27141.302,-0.0002,0.00035,50.11931,227.89,,0.0,-0.00144,-0.0045,22.87152,56.4654,,,,,,5.28,0.000221668,102383,102383,102506,6.16469e+17,0.12168
2.0,3.0,50.00517,15459.9,-357.907,-922.1631,-27141.302,7e-05,-0.00035,50.11837,227.392,,0.0,-0.00147,-0.0045,22.87148,56.46478,,,,,,5.335,0.000222039,102554,102554,102481,6.22891e+17,0.127376
2.0,3.0,50.00516,15459.9,-357.906,-922.164,-27141.301,-7e-05,4e-05,50.11841,227.471,,0.0,-0.00148,-0.00451,22.87147,56.46477,,,,,,5.39,0.000221884,102483,102483,102456,6.29312e+17,0.125002
2.0,3.0,50.00562,15460,-357.906,-922.164,-27141.301,4e-05,0.00018,50.11897,227.62,,0.0,-0.00142,-0.00454,22.87172,56.46524,,,,,,5.445,0.000221502,102306,102306,102431,6.35734e+17,0.119132
2.0,3.0,50.00494,15460,-357.905,-922.164,-27141.302,-0.0003,-0.00042,50.11797,227.141,,0.0,-0.00141,-0.00455,22.87158,56.46455,,,,,,5.5,0.00022175,102421,102421,102406,6.42155e+17,0.122946
2.0,3.0,50.00503,15460.1,-357.906,-922.163,-27141.3,0.0003,-0.00037,50.11812,227.213,,0.0,-0.00144,-0.00454,22.87161,56.46464,,,,,,5.555,0.0002217676,102429,102429,102381,6.48577e+17,0.123212
2.0,3.0,50.00556,15460.1,-357.906,-922.164,-27141.3,-0.00025,0.00038,50.11877,227.403,,0.0,-0.00145,-0.00448,22.87154,56.46517,,,,,,5.61,0.000221366,102243,102243,102357,6.54998e+17,0.117049
2.0,3.0,50.00474,15460.2,-357.9051,-922.164,-27141.301,-0.00011,-0.00012,50.1176,226.863,,0.0,-0.00146,-0.00451,22.87169,56.46435,,,,,,5.665,0.000221726,102410,102410,102333,6.6142e+17,0.122573
2.0,3.0,50.00444,15460.2,-357.906,-922.163,-27141.301,-0.00015,0.00018,50.1173,226.867,,0.0,-0.00146,-0.00452,22.87161,56.46405,,,,,,5.72,0.000221613,102357,102357,102309,6.67842e+17,0.120841
2.0,3.0,50.00535,15460.3,-357.9078,-922.164,-27141.3,-4e-05,0.00013,50.1184,227.16,,0.0,-0.00143,-0.00451,22.87164,56.46496,,,,,,5.775,0.000221204,102168,102168,102285,6.74263e+17,0.114559
2.0,3.0,50.00495,15460.3,-357.906,-922.164,-27141.301,-0.00026,0.00015,50.11773,226.75,,0.0,-0.00144,-0.00451,22.87164,56.46456,,,,,,5.83,0.000221491,102301,102301,102261,6.80685e+17,0.118964
2.0,3.0,50.00451,15460.4,-357.9069,-922.163,-27141.301,-5e-05,-0.00061,50.1172,226.591,,0.0,-0.00148,-0.00451,22.87162,56.46413,,,,,,5.885,0.00022154,102323,102323,102238,6.87106e+17,0.119711
2.0,3.0,50.00559,15460.5,-357.906,-922.164,-27141.303,0.0001,0.00015,50.11855,227.029,,0.0,-0.00152,-0.00455,22.87145,56.4652,,,,,,5.94,0.000221009,102079,102079,102214,6.93528e+17,0.111571
2.0,3.0,50.00475,15460.5,-357.906,-922.163,-27141.302,-8e-05,0.0001,50.11735,226.464,,0.0,-0.00147,-0.00455,22.87162,56.46437,,,,,,5.995,0.000221357,102239,102239,102191,6.99949e+17,0.116902
2.0,3.0,50.00432,15460.6,-357.907,-922.164,-27141.302,-0.00032,-1e-05,50.11686,226.365,,0.0,-0.00149,-0.00457,22.87173,56.46393,,,,,,6.05,0.000221438,102277,102277,102168,7.06371e+17,0.118154
2.0,3.0,50.00517,15460.6,-357.906,-922.164,-27141.3,0.00026,-0.00019,50.11797,226.767,,0.0,-0.00142,-0.00456,22.87176,56.46479,,,,,,6.105,0.000220889,102023,102023,102146,7.12792e+17,0.109724
2.0,3.0,50.00451,15460.7,-357.907,-922.163,-27141.302,1e-05,-0.0001,50.11697,226.246,,0.0,-0.00153,-0.00455,22.87171,56.46412,,,,,,6.16,0.0002212,102166,102166,102123,7.19214e+17,0.114491
2.0,3.0,50.00428,15460.7,-357.907,-922.164,-27141.301,-0.0004,0.00057,50.11668,226.1584,,0.0,-0.00149,-0.00455,22.87155,56.46389,,,,,,6.215,0.000221253,102191,102191,102101,7.25636e+17,0.115313
2.0,3.0,50.00512,15460.8,-357.907,-922.164,-27141.302,-4e-05,8e-05,50.11778,226.552,,0.0,-0.00152,-0.00451,22.87165,56.46473,,,,,,6.27,0.000220713,101942,101942,102078,7.32057e+17,0.107029
2.0,3.0,50.00423,15460.8,-357.9069,-922.164,-27141.302,-1e-05,0.0001,50.11651,225.9648,,0.0,-0.00154,-0.00453,22.87173,56.46384,,,,,,6.325,0.000221076,102110,102110,102056,7.38479e+17,0.112599
2.0,3.0,50.00427,15460.9,-357.906,-922.163,-27141.302,-0.00028,0.00025,50.1166,226.037,,0.0,-0.00153,-0.00453,22.87157,56.46389,,,,,,6.38,0.000221195,102164,102164,102034,7.449e+17,0.114417
2.0,3.0,50.00553,15461,-357.906,-922.165,-27141.3,0.00017,-0.00021,50.11815,226.502,,0.0,-0.0015,-0.00454,22.87135,56.46514,,,,,,6.435,0.000220566,101874,101874,102012,7.51322e+17,0.104766
2.0,3.0,50.00449,15461,-357.905,-922.163,-27141.303,0.00017,-0.00063,50.11672,225.888,,0.0,-0.00146,-0.00454,22.87174,56.4641,,,,,,6.49,0.000220881,102019,102019,101991,7.57743e+17,0.109604
2.0,3.0,50.00376,15461.1,-357.907,-922.163,-27141.3,-0.0002,-0.00015,50.11585,225.663,,0.0,-0.00157,-0.00457,22.87168,56.46337,,,,,,6.545,0.000221037,102092,102092,101969,7.64165e+17,0.112001
2.0,3.0,50.00511,15461.1,-357.907,-922.163,-27141.303,-5e-05,0.00028,50.11756,226.216,,0.0,-0.00149,-0.00451,22.87179,56.46473,,,,,,6.6,0.000220395,101795,101795,101948,7.70586e+17,0.102133
2.0,3.0,50.00411,15461.2,-357.906,-922.164,-27141.3,4e-05,-0.00041,50.11617,225.621,,0.0,-0.00145,-0.00453,22.8718,56.46372,,,,,,6.655,0.000220727,101948,101948,101927,7.77008e+17,0.107235
2.0,3.0,50.00388,15461.2,-357.907,-922.163,-27141.302,0.00018,0.00013,50.11592,225.587,,0.0,-0.00145,-0.00453,22.87165,56.46349,,,,,,6.71,0.000220857,102008,102008,101906,7.8343e+17,0.109236
2.0,3.0,50.00508,15461.3,-357.906,-922.163,-27141.302,-0.00036,0.00072,50.11743,226.08,,0.0,-0.00145,-0.00452,22.87172,56.46469,,,,,,6.765,0.000220219,101714,101714,101885,7.89851e+17,0.0994395
2.0,3.0,50.00434,15461.3,-357.907,-922.164,-27141.302,0.00016,-0.00012,50.11633,225.505,,0.0,-0.00147,-0.00456,22.87177,56.46396,,,,,,6.82,0.0002206365,101906,101906,101864,7.96273e+17,0.105847
2.0,3.0,50.00418,15461.4,-357.907,-922.164,-27141.3,0.00017,0.00011,50.11618,225.54,,0.0,-0.00146,-0.00451,22.87175,56.46379,,,,,,6.875,0.000220699,101935,101935,101844,8.02694e+17,0.106806
2.0,3.0,50.00487,15461.4,-357.906,-922.164,-27141.303,6e-05,0.00065,50.11707,225.839,,0.0,-0.00149,-0.0045,22.87175,56.46449,,,,,,6.93,0.000220146,101680,101680,101823,8.09116e+17,0.0983183
2.0,3.0,50.00407,15461.5,-357.906,-922.164,-27141.3,-7e-05,-0.00041,50.11591,225.29,,0.0,-0.00142,-0.0045,22.87193,56.46368,,,,,,6.985,0.000220538,101861,101861,101803,8.15537e+17,0.104337
2.0,3.0,50.00396,15461.6,-357.907,-922.163,-27141.302,0.0003,-0.00055,50.11582,225.3086,,0.0,-0.00151,-0.0045,22.87191,56.46357,,,,,,7.04,0.000220481,101835,101835,101783,8.21959e+17,0.103458
2.0,3.0,50.00468,15461.6,-357.9079,-922.164,-27141.302,-0.00017,-1e-05,50.11674,225.621,,0.0,-0.00149,-0.00448,22.87171,56.46429,,,,,,7.095,0.000220039,101631,101631,101763,8.2838e+17,0.0966796
2.0,3.0,50.00382,15461.7,-357.906,-922.164,-27141.302,-0.00048,0.00027,50.11554,225.087,,0.0,-0.00144,-0.00449,22.87188,56.46343,,,,,,7.15,0.000220436,101814,101814,101743,8.34802e+17,0.102775
2.0,3.0,50.00397,15461.7,-357.9061,-922.164,-27141.3,-5e-05,-0.0002,50.11575,225.183,,0.0,-0.00144,-0.00451,22.87181,56.46358,,,,,,7.205,0.0002203797,101788,101788,101723,8.41224e+17,0.101904
2.0,3.0,50.00465,15461.8,-357.907,-922.164,-27141.3,6e-05,0.00018,50.11658,225.427,,0.0,-0.00144,-0.00448,22.8717,56.46426,,,,,,7.26,0.000219976,101601,101601,101704,8.47645e+17,0.0957046
2.0,3.0,50.00389,15461.8,-357.906,-922.1629,-27141.3,-0.00023,0.00011,50.11551,224.95,,0.0,-0.00144,-0.00454,22.872,56.4635,,,,,,7.315,0.000220355,101776,101776,101684,8.54067e+17,0.101529
2.0,3.0,50.00367,15461.9,-357.907,-922.163,-27141.305,6e-05,-8e-05,50.11532,224.983,,0.0,-0.00148,-0.00449,22.87197,56.46328,,,,,,7.37,0.000220281,101742,101742,101665,8.60488e+17,0.100391
2.0,3.0,50.00452,15461.9,-357.905,-922.164,-27141.304,-5e-05,-0.00014,50.11635,225.267,,0.0,-0.00145,-0.00454,22.87183,56.46413,,,,,,7.425,0.000219892,101562,101562,101646,8.6691e+17,0.0944115
2.0,3.0,50.00393,15462,-357.907,-922.164,-27141.302,-0.00015,0.00015,50.1155,224.856,,0.0,-0.00147,-0.00452,22.87196,56.46354,,,,,,7.48,0.000220098,101658,101658,101627,8.73331e+17,0.097579
2.0,3.0,50.00378,15462.1,-357.907,-922.1649,-27141.3,6e-05,-3e-05,50.11531,224.804,,0.0,-0.00141,-0.00449,22.87187,56.46339,,,,,,7.535,0.000220233,101720,101720,101608,8.79753e+17,0.0996586
2.0,3.0,50.00458,15462.1,-357.907,-922.164,-27141.302,0.00032,0.0001,50.11631,225.11,,0.0,-0.00148,-0.00455,22.87182,56.46419,,,,,,7.59,0.000219795,101518,101518,101589,8.86174e+17,0.0929305
2.0,3.0,50.00378,15462.2,-357.9069,-922.164,-27141.303,-0.00018,-0.00038,50.11524,224.6851,,0.0,-0.00141,-0.00452,22.87193,56.46339,,,,,,7.645,0.000219937,101583,101583,101570,8.92596e+17,0.0951067
2.0,3.0,50.00383,15462.2,-357.907,-922.164,-27141.303,-0.00031,-0.00028,50.11528,224.673,,0.0,-0.00146,-0.00455,22.8718,56.46344,,,,,,7.7,0.000220086,101652,101652,101552,8.99017e+17,0.0973981
2.0,3.0,50.00436,15462.3,-357.907,-922.164,-27141.3,0.00014,-0.0001,50.11597,224.918,,0.0,-0.00145,-0.00451,22.87176,56.46397,,,,,,7.755,0.000219679,101464,101464,101533,9.05439e+17,0.0911518
2.0,3.0,50.00381,15462.3,-357.906,-922.164,-27141.3,-5e-05,0.00029,50.11516,224.522,,0.0,-0.00146,-0.00455,22.87182,56.46342,,,,,,7.81,0.00021995,101589,101589,101515,9.11861e+17,0.0953061
2.0,3.0,50.0034,15462.4,-357.904,-922.163,-27141.303,-0.00013,0.00043,50.11469,224.425,,0.0,-0.00145,-0.00453,22.87172,56.46301,,,,,,7.865,0.000220028,101625,101625,101497,9.18282e+17,0.0965103
2.0,3.0,50.00421,15462.4,-357.907,-922.162,-27141.3,-5e-05,0.00012,50.11577,224.8415,,0.0,-0.00146,-0.00456,22.8717,56.46382,,,,,,7.92,0.00021948,101372,101372,101479,9.24704e+17,0.0880868
2.0,3.0,50.00386,15462.5,-357.906,-922.163,-27141.304,-0.00019,-0.00024,50.11515,224.43,,0.0,-0.00148,-0.00455,22.87196,56.46347,,,,,,7.975,0.000219674,101462,101462,101461,9.31125e+17,0.0910665
2.0,3.0,50.00335,15462.5,-357.905,-922.163,-27141.304,-0.00036,-0.00018,50.11454,224.267,,0.0,-0.00151,-0.00448,22.87207,56.46296,,,,,,8.03,0.000219946,101587,101587,101443,9.37547e+17,0.0952451
2.0,3.0,50.00434,15462.6,-357.9062,-922.163,-27141.3,-6e-05,-0.00015,50.11582,224.732,,0.0,-0.0015,-0.00449,22.87186,56.46395,,,,,,8.085,0.000219459,101362,101362,101425,9.43968e+17,0.0877643
2.0,3.0,50.00384,15462.7,-357.907,-922.164,-27141.3,-8e-05,-7e-05,50.11505,224.305,,0.0,-0.00143,-0.0045,22.87214,56.46345,,,,,,8.14,0.000219405,101338,101338,101408,9.5039e+17,0.086944
2.0,3.0,50.00341,15462.7,-357.906,-922.1631,-27141.3,-0.00026,0.00032,50.11451,224.12,,0.0,-0.00149,-0.00451,22.87201,56.46303,,,,,,8.195,0.000219887,101560,101560,101390,9.56811e+17,0.0943367
2.0,3.0,50.00447,15462.8,-357.906,-922.163,-27141.301,0.0,0.0002,50.11588,224.611,,0.0,-0.00147,-0.00452,22.87201,56.46408,,,,,,8.25,0.000219336,101305,101305,101373,9.63233e+17,0.0858746
2.0,3.0,50.00385,15462.8,-357.906,-922.163,-27141.3,0.00146,-0.00056,50.11497,224.169,,0.0,-0.00144,-0.00454,22.87199,56.46346,,,,,,8.305,0.000219282,101281,101281,101356,9.69655e+17,0.0850474
2.0,3.0,50.00301,15462.9,-357.907,-922.164,-27141.302,0.00049,-0.00037,50.11395,223.8911,,0.0,-0.00151,-0.00443,22.87195,56.46262,,,,,,8.36,0.000219776,101509,101509,101339,9.76076e+17,0.0926383
2.0,3.0,50.00433,15462.9,-357.905,-922.164,-27141.303,0.00032,2e-05,50.11564,224.456,,0.0,-0.00142,-0.00445,22.8721,56.46394,,,,,,8.415,0.00021919,101238,101238,101322,9.82498e+17,0.083635
2.0,3.0,50.0038,15463,-357.905,-922.164,-27141.303,-0.0001,0.0,50.11484,224.026,,0.0,-0.0015,-0.00447,22.8718,56.46342,,,,,,8.47,0.000219219,101252,101252,101305,9.88919e+17,0.0840813
2.0,3.0,50.00304,15463,-357.908,-922.164,-27141.3,-0.00083,-0.0002,50.11389,223.745,,0.0,-0.00148,-0.00449,22.872,56.46265,,,,,,8.525,0.000219662,101456,101456,101288,9.95341e+17,0.0908794
2.0,3.0,50.00438,15463.1,-357.906,-922.163,-27141.304,0.0007,0.0005,50.11561,224.329,,0.0,-0.00147,-0.00451,22.87197,56.46399,,,,,,8.58,0.000219056,101177,101177,101271,1.00176e+18,0.0815902
2.0,3.0,50.00372,15463.2,-357.9068,-922.164,-27141.303,1e-05,-0.00032,50.11467,223.897,,0.0,-0.00142,-0.00454,22.87196,56.46333,,,,,,8.635,0.000219121,101206,101206,101255,1.00818e+18,0.0825777
2.0,3.0,50.00321,15463.2,-357.908,-922.165,-27141.303,0.00078,-0.00059,50.11403,223.701,,0.0,-0.00155,-0.00454,22.87201,56.46282,,,,,,8.69,0.000219514,101388,101388,101238,1.01461e+18,0.0886116
2.0,3.0,50.00438,15463.3,-357.907,-922.164,-27141.3,-0.00017,0.0005,50.11556,224.26,,0.0,-0.00154,-0.00444,22.87193,56.46399,,,,,,8.745,0.000218887,101098,101098,101222,1.02103e+18,0.0789837
2.0,3.0,50.00398,15463.3,-357.906,-922.164,-27141.303,-0.00045,-7e-05,50.11489,223.84,,0.0,-0.00152,-0.00446,22.87202,56.46359,,,,,,8.8,0.000219045,101171,101171,101206,1.02745e+18,0.0814129
2.0,3.0,50.00296,15463.4,-357.907,-922.164,-27141.302,0.00017,-0.00026,50.11366,223.516,,0.0,-0.00144,-0.0045,22.87196,56.46257,,,,,,8.855,0.000219398,101334,101334,101189,1.03387e+18,0.0868304
2.0,3.0,50.00397,15463.4,-357.906,-922.163,-27141.304,-0.00014,-7e-05,50.11496,223.956,,0.0,-0.00144,-0.00451,22.87204,56.46358,,,,,,8.91,0.000218834,101074,101074,101173,1.04029e+18,0.0781734
2.0,3.0,50.00347,15463.5,-357.906,-922.163,-27141.303,-0.00012,3e-05,50.11419,223.549,,0.0,-0.00147,-0.00451,22.87187,56.46308,,,,,,8.965,0.000218903,101106,101106,101157,1.04671e+18,0.0792315
2.0,3.0,50.0031,15463.5,-357.906,-922.164,-27141.301,0.0002,8e-05,50.11376,223.449,,0.0,-0.00147,-0.00452,22.87201,56.46271,,,,,,9.02,0.000219252,101267,101267,101142,1.05313e+18,0.0845977
2.0,3.0,50.00393,15463.6,-357.907,-922.164,-27141.3,-3e-05,8e-05,50.11484,223.8366,,0.0,-0.00142,-0.0045,22.87186,56.46354,,,,,,9.075,0.000218766,101042,101042,101126,1.05956e+18,0.0771317
2.0,3.0,50.0033,15463.6,-357.905,-922.164,-27141.301,0.00027,0.00014,50.11391,223.371,,0.0,-0.00148,-0.0045,22.87216,56.46291,,,,,,9.13,0.000218739,101030,101030,101110,1.06598e+18,0.0767163
2.0,3.0,50.0032,15463.7,-357.9052,-922.164,-27141.3,-0.00023,-0.0001,50.11386,223.4376,,0.0,-0.00146,-0.00451,22.87198,56.46282,,,,,,9.185,0.000219116,101204,101204,101095,1.0724e+18,0.0825089
2.0,3.0,50.00411,15463.8,-357.906,-922.163,-27141.302,0.00018,-0.0002,50.11496,223.749,,0.0,-0.00149,-0.00444,22.87215,56.46372,,,,,,9.24,0.000218658,100993,100993,101079,1.07882e+18,0.0754755
2.0,3.0,50.00323,15463.8,-357.906,-922.164,-27141.303,-0.00039,4e-05,50.11377,223.256,,0.0,-0.00149,-0.0045,22.87206,56.46284,,,,,,9.295,0.000218744,101032,101032,101064,1.08524e+18,0.0767989
2.0,3.0,50.00312,15463.9,-357.905,-922.164,-27141.302,-0.00026,-0.00038,50.11364,223.228,,0.0,-0.00143,-0.00451,22.87205,56.46273,,,,,,9.35,0.000218921,101114,101114,101049,1.09166e+18,0.0795163
2.0,3.0,50.00392,15463.9,-357.9061,-922.164,-27141.3,0.00039,2e-05,50.11466,223.579,,0.0,-0.00148,-0.00449,22.87225,56.46353,,,,,,9.405,0.000218482,100911,100911,101034,1.09809e+18,0.0727663
2.0,3.0,50.00344,15464,-357.907,-922.164,-27141.3,8e-05,9e-05,50.11395,223.218,,0.0,-0.00151,-0.00452,22.87209,56.46305,,,,,,9.46,0.000218597,100964,100964,101019,1.10451e+18,0.0745354
2.0,3.0,50.003,15464,-357.906,-922.163,-27141.303,0.0,0.00017,50.11344,223.103,,0.0,-0.00143,-0.00453,22.87194,56.46261,,,,,,,,,,,,
2.0,3.0,50.00381,15464.1,-357.906,-922.163,-27141.304,0.00016,0.0001,50.11445,223.418,,0.0,-0.00149,-0.0045,22.87205,56.46342,,,,,,,,,,,,
2.0,3.0,50.00368,15464.1,-357.9071,-922.163,-27141.3,-0.00017,-0.00033,50.11418,223.186,,0.0,-0.00149,-0.00453,22.87198,56.4633,,,,,,,,,,,,
2.0,3.0,50.00315,15464.2,-357.907,-922.164,-27141.304,-0.0005,-2e-05,50.11352,222.999,,0.0,-0.00152,-0.0045,22.87207,56.46276,,,,,,,,,,,,
2.0,3.0,50.0039,15464.3,-357.906,-922.1639,-27141.3,0.00028,-0.0002,50.11448,223.323,,0.0,-0.00147,-0.00454,22.87207,56.46351,,,,,,,,,,,,
2.0,3.0,50.00359,15464.3,-357.906,-922.164,-27141.304,2e-05,-0.0003,50.11397,223.015,,0.0,-0.00151,-0.00452,22.87199,56.4632,,,,,,,,,,,,
2.0,3.0,50.0031,15464.4,-357.907,-922.164,-27141.3,-4e-05,-0.00011,50.11338,222.854,,0.0,-0.00149,-0.00453,22.87219,56.46271,,,,,,,,,,,,
2.0,3.0,50.00361,15464.4,-357.907,-922.163,-27141.3,8e-05,-0.00025,50.11408,223.149,,0.0,-0.00151,-0.0045,22.87219,56.46323,,,,,,,,,,,,
2.0,3.0,50.00364,15464.5,-357.9061,-922.164,-27141.303,0.00037,0.0,50.11402,223.015,,0.0,-0.00151,-0.0045,22.87223,56.46325,,,,,,,,,,,,
2.0,3.0,50.00288,15464.5,-357.907,-922.163,-27141.303,-0.00032,-3e-05,50.11299,222.594,,0.0,-0.00151,-0.00453,22.87209,56.46249,,,,,,,,,,,,
2.0,3.0,50.00376,15464.6,-357.9061,-922.163,-27141.304,4e-05,0.00015,50.11417,223.0487,,0.0,-0.00148,-0.00448,22.87213,56.46338,,,,,,,,,,,,
2.0,3.0,50.00382,15464.6,-357.905,-922.164,-27141.3,0.00042,0.00026,50.11417,222.9661,,0.0,-0.00152,-0.00449,22.8721,56.46343,,,,,,,,,,,,
2.0,3.0,50.00279,15464.7,-357.905,-922.1631,-27141.3,-0.00025,-3e-05,50.11279,222.418,,0.0,-0.00148,-0.00448,22.87219,56.4624,,,,,,,,,,,,
2.0,3.0,50.00335,15464.7,-357.907,-922.164,-27141.303,0.00026,0.00037,50.11362,222.846,,0.0,-0.0015,-0.00447,22.87216,56.46296,,,,,,,,,,,,
2.0,3.0,50.00378,15464.8,-357.9051,-922.164,-27141.3,0.0002,-9e-05,50.11407,222.876,,0.0,-0.00147,-0.00451,22.87222,56.46339,,,,,,,,,,,,
2.0,3.0,50.00265,15464.9,-357.906,-922.164,-27141.304,-8e-05,-0.0004,50.11256,222.293,,0.0,-0.0015,-0.00447,22.8721,56.46226,,,,,,,,,,,,
2.0,3.0,50.00354,15464.9,-357.907,-922.164,-27141.304,0.00033,0.00044,50.11377,222.787,,0.0,-0.00151,-0.00447,22.87206,56.46315,,,,,,,,,,,,
2.0,3.0,50.00373,15465,-357.906,-922.164,-27141.3,-0.00014,-0.00026,50.11393,222.7276,,0.0,-0.00152,-0.00447,22.87209,56.46335,,,,,,,,,,,,
2.0,3.0,50.00278,15465,-357.906,-922.164,-27141.3,4e-05,-0.00038,50.11266,222.223,,0.0,-0.00149,-0.00443,22.87214,56.4624,,,,,,,,,,,,
2.0,3.0,50.00347,15465.1,-357.906,-922.165,-27141.304,-0.00011,6e-05,50.11365,222.707,,0.0,-0.00146,-0.00451,22.87246,56.46308,,,,,,,,,,,,
2.0,3.0,50.00389,15465.1,-357.906,-922.163,-27141.3,3e-05,7e-05,50.11402,222.627,,0.0,-0.00143,-0.0045,22.87239,56.4635,,,,,,,,,,,,
2.0,3.0,50.00263,15465.2,-357.907,-922.163,-27141.304,-0.00032,-0.00029,50.11244,222.116,,0.0,-0.00149,-0.00447,22.87232,56.46225,,,,,,,,,,,,
2.0,3.0,50.00368,15465.2,-357.906,-922.163,-27141.3,3e-05,0.00033,50.1138,222.6172,,0.0,-0.00151,-0.00445,22.87215,56.46329,,,,,,,,,,,,
2.0,3.0,50.00373,15465.3,-357.906,-922.164,-27141.303,-0.00022,-0.00032,50.11379,222.505,,0.0,-0.00149,-0.00447,22.87237,56.46335,,,,,,,,,,,,
2.0,3.0,50.00265,15465.4,-357.907,-922.163,-27141.3,0.0001,5e-05,50.1124,222.0308,,0.0,-0.00149,-0.00449,22.87215,56.46227,,,,,,,,,,,,
2.0,3.0,50.0036,15465.4,-357.906,-922.164,-27141.304,-1e-05,0.00049,50.11366,222.51,,0.0,-0.00159,-0.00452,22.87216,56.46322,,,,,,,,,,,,
2.0,3.0,50.00364,15465.5,-357.906,-922.1639,-27141.304,-0.00017,-7e-05,50.11361,222.377,,0.0,-0.00155,-0.0045,22.8722,56.46325,,,,,,,,,,,,
2.0,3.0,50.00267,15465.5,-357.905,-922.164,-27141.303,0.00029,-0.00047,50.11237,221.952,,0.0,-0.00157,-0.00451,22.87209,56.46228,,,,,,,,,,,,
2.0,3.0,50.00349,15465.6,-357.9079,-922.163,-27141.3,5e-05,-0.00032,50.11344,222.3299,,0.0,-0.0015,-0.00447,22.87237,56.46311,,,,,,,,,,,,
2.0,3.0,50.00368,15465.6,-357.907,-922.163,-27141.304,-0.00011,5e-05,50.11359,222.278,,0.0,-0.00144,-0.00445,22.87235,56.46329,,,,,,,,,,,,
2.0,3.0,50.00285,15465.7,-357.906,-922.1649,-27141.304,-5e-05,-5e-05,50.1125,221.884,,0.0,-0.00141,-0.00445,22.87248,56.46246,,,,,,,,,,,,
2.0,3.0,50.00339,15465.7,-357.906,-922.164,-27141.303,-0.00034,-0.00016,50.11325,222.198,,0.0,-0.00143,-0.0045,22.87234,56.463,,,,,,,,,,,,
2.0,3.0,50.00337,15465.8,-357.908,-922.164,-27141.3,0.00037,0.00018,50.11318,222.123,,0.0,-0.00149,-0.0045,22.87242,56.46299,,,,,,,,,,,,
2.0,3.0,50.00293,15465.8,-357.907,-922.164,-27141.304,-0.00034,-0.00018,50.11253,221.805,,0.0,-0.00148,-0.00453,22.87218,56.46254,,,,,,,,,,,,
2.0,3.0,50.00337,15465.9,-357.9079,-922.164,-27141.304,0.0003,-0.00026,50.11318,222.12,,0.0,-0.00144,-0.00453,22.87223,56.46299,,,,,,,,,,,,
2.0,3.0,50.00337,15466,-357.907,-922.164,-27141.304,-2e-05,0.00016,50.11309,221.989,,0.0,-0.00151,-0.0045,22.87227,56.46298,,,,,,,,,,,,
2.0,3.0,50.00302,15466,-357.906,-922.163,-27141.303,-0.00045,0.00025,50.11259,221.754,,0.0,-0.00151,-0.00445,22.87211,56.46263,,,,,,,,,,,,
2.0,3.0,50.00346,15466.1,-357.906,-922.162,-27141.3,0.00024,9e-05,50.11321,222.034,,0.0,-0.0015,-0.00449,22.87224,56.46307,,,,,,,,,,,,
2.0,3.0,50.00359,15466.1,-357.906,-922.164,-27141.3,-0.00014,6e-05,50.11331,221.982,,0.0,-0.00148,-0.00453,22.87227,56.4632,,,,,,,,,,,,
2.0,3.0,50.00293,15466.2,-357.906,-922.163,-27141.301,-0.0004,-9e-05,50.11242,221.624,,0.0,-0.00146,-0.00455,22.8723,56.46254,,,,,,,,,,,,
2.0,3.0,50.00329,15466.2,-357.906,-922.163,-27141.302,-0.00012,-0.00018,50.11292,221.85,,0.0,-0.00144,-0.00447,22.87221,56.4629,,,,,,,,,,,,
2.0,3.0,50.00372,15466.3,-357.907,-922.163,-27141.303,0.00015,7e-05,50.11338,221.886,,0.0,-0.00148,-0.00451,22.87204,56.46333,,,,,,,,,,,,
2.0,3.0,50.00283,15466.3,-357.9052,-922.164,-27141.303,0.0,0.00046,50.11222,221.475,,0.0,-0.00149,-0.00453,22.87233,56.46244,,,,,,,,,,,,
2.0,3.0,50.00334,15466.4,-357.906,-922.164,-27141.302,-0.00029,0.00041,50.11288,221.71,,0.0,-0.00152,-0.00453,22.87219,56.46295,,,,,,,,,,,,
2.0,3.0,50.00377,15466.5,-357.9069,-922.163,-27141.302,0.00054,0.00022,50.11345,221.913,,0.0,-0.00151,-0.0045,22.87248,56.46338,,,,,,,,,,,,
2.0,3.0,50.00259,15466.5,-357.906,-922.162,-27141.304,-0.00032,3e-05,50.11188,221.318,,0.0,-0.00148,-0.00452,22.87252,56.4622,,,,,,,,,,,,
2.0,4.0,49.69338,15466.6,-357.906,-922.163,-27141.303,6e-05,0.0003,49.788,198.529,,0.0,-0.00148,-0.00452,22.87221,56.15299,,,,,,,,,,,,
2.0,4.0,48.87542,15466.6,-357.908,-922.165,-27141.303,0.00013,-8e-05,48.94411,158.235,,0.0,-0.00152,-0.00452,22.87215,55.33503,,,,,,,,,,,,
2.0,4.0,47.74059,15466.7,-357.907,-922.163,-27141.303,0.00027,3e-05,47.78336,117.962,,0.0,-0.00148,-0.00448,22.8721,54.2002,,,,,,,,,,,,
2.0,4.0,46.43047,15466.7,-357.906,-922.164,-27141.303,-0.00015,0.00049,46.45359,87.42364,,0.0,-0.00153,-0.00451,22.87229,52.89008,,,,,,,,,,,,
2.0,4.0,45.0341,15466.8,-357.907,-922.164,-27141.304,-4e-05,0.00033,45.04469,67.93536,,0.0,-0.0015,-0.00449,22.87222,51.49372,,,,,,,,,,,,
2.0,4.0,43.60104,15466.8,-357.906,-922.164,-27141.304,-8e-05,-0.0003,43.60377,55.72513,,0.0,-0.0015,-0.00449,22.87233,50.06066,,,,,,,,,,,,
2.0,4.0,42.1616,15466.9,-357.906,-922.163,-27141.304,-0.00015,0.00046,42.15943,48.12328,,0.0,-0.00152,-0.00448,22.87242,48.62121,,,,,,,,,,,,
2.0,4.0,40.72553,15466.9,-357.905,-922.163,-27141.303,5e-05,0.00041,40.71938,41.93969,,0.0,-0.00147,-0.00447,22.87234,47.18514,,,,,,,,,,,,
2.0,4.0,39.2939,15467,-357.908,-922.164,-27141.3,8e-05,0.00016,39.28389,35.94119,,0.0,-0.00146,-0.00452,22.8725,45.75351,,,,,,,,,,,,
2.0,4.0,37.8703,15467.1,-357.906,-922.164,-27141.303,4e-05,0.0001,37.85717,31.08073,,0.0,-0.00149,-0.00445,22.87236,44.32991,,,,,,,,,,,,
2.0,4.0,36.45186,15467.1,-357.9061,-922.163,-27141.3,0.00011,4e-05,36.43566,26.3155,,0.0,-0.00153,-0.00449,22.87234,42.91147,,,,,,,,,,,,
2.0,4.0,35.03615,15467.2,-357.906,-922.164,-27141.3,1e-05,-0.00033,35.01689,21.55488,,0.0,-0.00153,-0.00448,22.87235,41.49576,,,,,,,,,,,,
2.0,4.0,33.62673,15467.2,-357.907,-922.1631,-27141.3,4e-05,0.00025,33.60466,17.20301,,0.0,-0.00155,-0.00451,22.87244,40.08634,,,,,,,,,,,,
2.0,4.0,32.21954,15467.3,-357.907,-922.164,-27141.304,-0.00025,0.00045,32.19465,12.80999,,0.0,-0.0015,-0.00448,22.87247,38.67916,,,,,,,,,,,,
2.0,4.0,30.81288,15467.3,-357.907,-922.163,-27141.3,-0.00011,-0.00016,30.78527,8.59328,,0.0,-0.00145,-0.00445,22.87227,37.27249,,,,,,,,,,,,
2.0,4.0,29.41086,15467.4,-357.906,-922.163,-27141.3,-9e-05,0.00043,29.38067,4.56885,,0.0,-0.00151,-0.00445,22.87258,35.87048,,,,,,,,,,,,
2.0,4.0,28.01058,15467.4,-357.906,-922.164,-27141.3,-0.00014,0.00028,27.97799,0.85516,,0.0,-0.00147,-0.00446,22.87241,34.47019,,,,,,,,,,,,
2.0,4.0,26.60827,15467.5,-357.906,-922.163,-27141.305,0.00015,0.00025,26.5752,0.09784,,0.0,-0.00146,-0.0045,22.87245,33.06788,,,,,,,,,,,,
2.0,4.0,25.21027,15467.6,-357.907,-922.1631,-27141.3,0.00028,-0.00029,25.17711,-0.03366,,0.0,-0.00148,-0.0045,22.87219,31.66988,,,,,,,,,,,,
2.0,4.0,23.81399,15467.6,-357.905,-922.163,-27141.304,-0.00012,0.0003,23.78074,-0.17471,,0.0,-0.0015,-0.00451,22.87249,30.2736,,,,,,,,,,,,
2.0,4.0,22.41752,15467.7,-357.9051,-922.164,-27141.3,-0.00027,-0.00017,22.38418,-0.32752,,0.0,-0.00148,-0.0045,22.87233,28.87713,,,,,,,,,,,,
2.0,4.0,21.0237,15467.7,-357.906,-922.164,-27141.304,0.0003,7e-05,20.99026,-0.46947,,0.0,-0.00149,-0.00452,22.87242,27.48331,,,,,,,,,,,,
2.0,4.0,19.6305,15467.8,-357.9069,-922.163,-27141.3,-5e-05,0.00039,19.59697,-0.6206,,0.0,-0.00146,-0.00449,22.87235,26.09011,,,,,,,,,,,,
2.0,4.0,18.23699,15467.8,-357.906,-922.164,-27141.304,-0.00011,0.00027,18.20336,-0.77222,,0.0,-0.00149,-0.00452,22.87247,24.69661,,,,,,,,,,,,
2.0,4.0,16.84545,15467.9,-357.906,-922.164,-27141.3,0.00026,-3e-05,16.81173,-0.90874,,0.0,-0.0015,-0.00453,22.87257,23.30506,,,,,,,,,,,,
2.0,4.0,15.45578,15467.9,-357.905,-922.165,-27141.303,1e-05,0.00037,15.42196,-1.06883,,0.0,-0.00155,-0.00453,22.8726,21.91539,,,,,,,,,,,,
2.0,4.0,14.06502,15468,-357.906,-922.1631,-27141.3,-0.00022,-1e-05,14.0311,-1.21684,,0.0,-0.00146,-0.0045,22.87254,20.52463,,,,,,,,,,,,
2.0,4.0,12.67614,15468,-357.907,-922.163,-27141.304,3e-05,5e-05,12.64213,-1.35841,,0.0,-0.00152,-0.0045,22.87257,19.13575,,,,,,,,,,,,
2.0,4.0,11.28872,15468.1,-357.907,-922.163,-27141.3,-0.0001,0.0004,11.25462,-1.50143,,0.0,-0.00152,-0.00449,22.87244,17.74833,,,,,,,,,,,,
2.0,4.0,9.90076,15468.2,-357.906,-922.164,-27141.305,-8e-05,0.00031,9.86656,-1.65442,,0.0,-0.00151,-0.0045,22.87239,16.36037,,,,,,,,,,,,
2.0,4.0,8.51399,15468.2,-357.907,-922.163,-27141.304,0.00011,-0.00027,8.4797,-1.80068,,0.0,-0.00145,-0.00449,22.87247,14.9736,,,,,,,,,,,,
2.0,4.0,7.13019,15468.3,-357.906,-922.164,-27141.305,0.0001,0.00029,7.09581,-1.93325,,0.0,-0.00148,-0.00455,22.87262,13.5898,,,,,,,,,,,,
2.0,4.0,5.74524,15468.3,-357.906,-922.164,-27141.303,-0.00017,0.00019,5.71077,-2.09088,,0.0,-0.00147,-0.00449,22.87258,12.20486,,,,,,,,,,,,
2.0,4.0,4.36173,15468.4,-357.907,-922.164,-27141.3,0.00013,0.00041,4.32716,-2.22,,0.0,-0.00151,-0.00451,22.87254,10.82134,,,,,,,,,,,,
2.0,4.0,2.98176,15468.4,-357.907,-922.1639,-27141.304,-0.00031,0.00067,2.94711,-2.36851,,0.0,-0.00148,-0.00449,22.87253,9.44138,,,,,,,,,,,,
2.0,4.0,1.60229,15468.5,-357.905,-922.163,-27141.303,0.00023,8e-05,1.56753,-2.52397,,0.0,-0.00148,-0.00448,22.87274,8.0619,,,,,,,,,,,,
2.0,4.0,0.42191,15468.5,-357.907,-922.163,-27141.3,-0.00012,-0.0001,0.38708,-2.64131,,0.0,-0.00147,-0.00446,22.87255,6.88152,,,,,,,,,,,,
2.0,4.0,0.20956,15468.6,-357.905,-922.163,-27141.3,0.00034,0.00054,0.17471,-2.65756,,0.0,-0.0015,-0.00451,22.87252,6.66917,,,,,,,,,,,,