File: dataset_example/processed_data/ForceRelax_example/data/data_1_Measurements/GMM Fitting Results/data_1_7_GMM Fit.csv
Index [#],Phase [#],Displacement [um],Time [s],Pos X [um],Pos Y [um],Pos Z [um],Piezo X [um],Piezo Y [um],Piezo Z [um],Force A [uN],Force B [uN],Gripper [V],Voltage A [V],Voltage B [V],Temperature [oC],Sample Displacement [um],Filtered time [uN},Filtered force [uN],SG Force [uN],Est Force 2nd derivative,Filtered displacement [um],Sel Time [s],Sel Force [N],Sel Modulus Uncorrected [Pa],Sel Modulus Corrected [Pa],Sel Modulus GMM Fit [Pa],Sel Time Normalised [s m-2],Sel Force Normalised []
6.0,2.0,0.00573,15541.3,-1357.914,77.84,-27142.297,0.00015,-0.00036,-0.08847,-0.10397,,0.0,-0.00152,-0.00452,22.88045,-19.73131,15541.3,-0.10397,-0.100141,0.000301231,-0.08847,0.0,0.000288004,136441,136441,137822,0.0,1.0
6.0,2.0,0.51055,15541.3,-1357.91,77.8399,-27142.298,2e-05,0.00013,0.41638,-0.0479,,0.0,-0.0015,-0.00455,22.8806,-19.22649,15541.3,-0.0479,-0.0506702,0.000301231,0.41638,0.055,0.000275806,130662,130662,130178,6642606326958733.0,0.816693
6.0,2.0,1.47527,15541.4,-1357.91,77.839,-27142.299,9e-05,-3e-05,1.38116,0.04121,,0.0,-0.00147,-0.00454,22.8806,-18.26177,15541.4,0.04121,0.0361408,0.000240012,1.38116,0.11,0.00026389,125017,125017,125189,1.32852e+16,0.637626
6.0,2.0,2.69253,15541.5,-1357.91,77.8391,-27142.299,-0.0,-0.00051,2.59849,0.15034,,0.0,-0.00155,-0.00451,22.88047,-17.04451,15541.5,0.15034,0.151697,7.18347e-05,2.59849,0.165,0.000256973,121741,121741,121893,1.99278e+16,0.53368
6.0,2.0,4.06399,15541.5,-1357.92,77.83999,-27142.301,0.00014,-0.00033,3.97003,0.28173,,0.0,-0.00152,-0.00454,22.88043,-15.67305,15541.5,0.28173,0.278051,3.84859e-05,3.97003,0.22,0.000252512,119627,119627,119677,2.65704e+16,0.466643
6.0,2.0,5.48425,15541.6,-1357.91,77.839,-27142.3,-0.00014,-8e-05,5.39037,0.40738,,0.0,-0.0015,-0.00454,22.88073,-14.25279,15541.6,0.40738,0.394953,-0.0025899,5.39037,0.275,0.0002490927,118007,118007,118155,3.3213e+16,0.415258
6.0,2.0,6.91336,15541.6,-1357.91,77.839,-27142.302,6e-05,-0.00082,6.81935,0.19083,,0.0,-0.00152,-0.00456,22.88064,-12.82368,15541.6,0.19083,0.237754,0.00189457,6.81935,0.33,0.000247325,117170,117170,117079,3.98556e+16,0.38869
6.0,2.0,8.33968,15541.7,-1357.91,77.839,-27142.303,-0.00014,-0.00034,8.24573,0.29035,,0.0,-0.00151,-0.00456,22.88075,-11.39736,15541.7,0.29035,0.289026,-8.25926e-05,8.24573,0.385,0.000245781,116439,116439,116293,4.64982e+16,0.365498
6.0,2.0,9.75893,15541.7,-1357.92,77.83999,-27142.302,0.00037,1e-05,9.66503,0.37817,,0.0,-0.00154,-0.00458,22.88059,-9.97811,15541.7,0.37817,0.376501,1.64111e-05,9.66503,0.44,0.000244081,115633,115633,115696,5.31409e+16,0.339936
6.0,2.0,11.17021,15541.8,-1357.914,77.839,-27142.3,-0.0002,-0.00025,11.07637,0.45865,,0.0,-0.00149,-0.00453,22.88061,-8.56683,15541.8,0.45865,0.465703,-9.3805e-05,11.07637,0.495,0.000243458,115338,115338,115224,5.97835e+16,0.330575
6.0,2.0,12.57829,15541.8,-1357.915,77.838,-27142.304,7e-05,-0.00041,12.48451,0.56114,,0.0,-0.00149,-0.00457,22.88056,-7.15875,15541.8,0.56114,0.546476,-1.69147e-05,12.48451,0.55,0.000242779,115016,115016,114836,6.64261e+16,0.320376
6.0,2.0,13.98056,15541.9,-1357.92,77.839,-27142.3,0.00026,-0.00014,13.88683,0.62829,,0.0,-0.00156,-0.00453,22.88056,-5.75648,15541.9,0.62829,0.624835,3.40684e-05,13.88683,0.605,0.000241411,114368,114368,114507,7.30687e+16,0.299812
6.0,2.0,15.37769,15541.9,-1357.91,77.84,-27142.305,-0.00026,-0.00054,15.28399,0.69329,,0.0,-0.00151,-0.00452,22.88064,-4.35935,15541.9,0.69329,0.702368,-6.39848e-05,15.28399,0.66,0.000241131,114236,114236,114219,7.97113e+16,0.295615
6.0,2.0,16.77391,15542,-1357.915,77.8382,-27142.3,0.00015,-0.00034,16.68027,0.78073,,0.0,-0.00148,-0.00459,22.88068,-2.96313,15542,0.78073,0.774741,5.35793e-05,16.68027,0.715,0.000240876,114114,114114,113961,8.63539e+16,0.291773
6.0,2.0,18.16752,15542.1,-1357.915,77.839,-27142.307,5e-05,-0.00012,18.07393,0.86309,,0.0,-0.00156,-0.00457,22.88077,-1.56952,15542.1,0.86309,0.85241,-6.33876e-06,18.07393,0.77,0.00023976,113586,113586,113726,9.29965e+16,0.275015
6.0,2.0,19.5561,15542.1,-1357.915,77.8399,-27142.306,-0.00025,-0.00047,19.46255,0.91382,,0.0,-0.00159,-0.00455,22.88069,-0.18094,15542.1,0.91382,0.928829,2.58819e-05,19.46255,0.825,0.000239571,113496,113496,113509,9.96391e+16,0.27217
6.0,2.0,20.94508,15542.2,-1357.91,77.839,-27142.305,-0.00021,-9e-05,20.8516,1.01555,,0.0,-0.00159,-0.00454,22.8807,1.20804,15542.2,1.01555,1.01257,-0.000168481,20.8516,0.88,0.000239467,113447,113447,113307,1.06282e+17,0.270608
6.0,2.0,22.33215,15542.2,-1357.91,77.84071,-27142.306,0.0002,-0.00029,22.23871,1.08164,,0.0,-0.00159,-0.0045,22.88076,2.59511,15542.2,1.08164,1.07313,-6.2688e-05,22.23871,0.935,0.000238368,112926,112926,113117,1.12924e+17,0.254085
6.0,2.0,23.71626,15542.3,-1357.915,77.839,-27142.307,-0.00014,-0.00047,23.62284,1.10603,,0.0,-0.00151,-0.00451,22.8806,3.97922,15542.3,1.10603,1.12416,9.0603e-05,23.62284,0.99,0.00023822,112856,112856,112937,1.19567e+17,0.251867
6.0,2.0,25.10073,15542.3,-1357.92,77.839,-27142.3,-0.0,-0.00013,25.00736,1.1942,,0.0,-0.00152,-0.00452,22.88067,5.36369,15542.3,1.1942,1.13843,0.00329832,25.00736,1.045,0.00023829,112890,112890,112767,1.2621e+17,0.252921
6.0,2.0,26.4834,15542.4,-1357.91,77.84,-27142.308,0.00016,-0.00059,26.39024,1.5256,,0.0,-0.00151,-0.00452,22.88067,6.74636,15542.4,1.5256,1.52913,0.0517009,26.39024,1.1,0.000237287,112414,112414,112606,1.32852e+17,0.237843
6.0,2.0,27.86031,15542.4,-1357.91,77.83985,-27142.3,-0.00027,-0.00025,27.77142,8.1416,,0.0,-0.00149,-0.00455,22.88081,8.12327,15542.4,8.1416,8.17024,0.0575385,27.77142,1.155,0.0002372956,112418,112418,112452,1.39495e+17,0.237974
6.0,2.0,29.23721,15542.5,-1357.91,77.839,-27142.309,-7e-05,0.00019,29.15715,21.88194,,0.0,-0.00148,-0.00455,22.88077,9.50017,15542.5,21.88194,21.9463,0.0183134,29.15715,1.21,0.000237217,112381,112381,112305,1.46137e+17,0.236794
6.0,2.0,30.61553,15542.6,-1357.915,77.83985,-27142.309,-6e-05,-0.0,30.5458,37.93483,,0.0,-0.00149,-0.00453,22.88076,10.87849,15542.6,37.93483,37.8323,0.000991129,30.5458,1.265,0.000236396,111992,111992,112165,1.5278e+17,0.224458
6.0,2.0,31.99149,15542.6,-1357.915,77.83899,-27142.308,-1e-05,-0.00082,31.93192,53.71783,,0.0,-0.00158,-0.00455,22.88074,12.25445,15542.6,53.71783,53.8806,0.0107183,31.93192,1.32,0.000236562,112071,112071,112031,1.59423e+17,0.226957
6.0,2.0,33.36953,15542.7,-1357.91,77.839,-27142.311,-9e-05,-0.00015,33.32128,71.29806,,0.0,-0.00156,-0.00458,22.88084,13.63249,15542.7,71.29806,71.2388,0.00909252,33.32128,1.375,0.000236329,111961,111961,111902,1.66065e+17,0.223454
6.0,2.0,34.74579,15542.7,-1357.91,77.839,-27142.31,-0.0001,-0.00046,34.70945,89.80531,,0.0,-0.00148,-0.00458,22.88077,15.00875,15542.7,89.80531,89.7045,-0.00183643,34.70945,1.43,0.0002355513,111592,111592,111779,1.72708e+17,0.211762
6.0,2.0,36.12071,15542.8,-1357.915,77.83885,-27142.311,-7e-05,-0.00048,36.09591,107.748,,0.0,-0.00151,-0.0046,22.88069,16.38367,15542.8,107.748,107.944,-0.000366545,36.09591,1.485,0.000235834,111726,111726,111660,1.7935e+17,0.216014
6.0,2.0,37.49665,15542.8,-1357.915,77.83999,-27142.311,9e-05,4e-05,37.48374,126.237,,0.0,-0.00149,-0.00456,22.8807,17.75961,15542.8,126.237,126.111,0.00346776,37.48374,1.54,0.000235589,111610,111610,111546,1.85993e+17,0.212326
6.0,2.0,38.87197,15542.9,-1357.92,77.83921,-27142.3,-8e-05,5e-05,38.87105,144.857,,0.0,-0.00147,-0.00454,22.88085,19.13493,15542.9,144.857,144.689,0.00334963,38.87105,1.595,0.000234938,111302,111302,111436,1.92636e+17,0.202548
6.0,2.0,40.24386,15542.9,-1357.914,77.839,-27142.311,-9e-05,-0.00057,40.25482,163.33,,0.0,-0.00153,-0.00458,22.88066,20.50682,15542.9,163.33,163.62,0.00376333,40.25482,1.65,0.000235075,111366,111366,111330,1.99278e+17,0.204604
6.0,2.0,41.61741,15543,-1357.915,77.83929,-27142.312,-0.00027,-0.0005,41.64106,183.046,,0.0,-0.00151,-0.00459,22.88089,21.88037,15543,183.046,183.023,0.00167213,41.64106,1.705,0.000234963,111313,111313,111228,2.05921e+17,0.202915
6.0,2.0,42.99082,15543,-1357.915,77.839,-27142.313,-0.00028,-0.00036,43.02722,202.845,,0.0,-0.00155,-0.00459,22.88079,23.25378,15543,202.845,202.634,0.00211346,43.02722,1.76,0.000234251,110976,110976,111130,2.12563e+17,0.192221
6.0,2.0,44.36126,15543.1,-1357.914,77.839,-27142.3,0.00017,-0.00043,44.41013,222.223,,0.0,-0.00152,-0.00458,22.88075,24.62422,15543.1,222.223,222.462,0.00267355,44.41013,1.815,0.000234411,111052,111052,111034,2.19206e+17,0.194628
6.0,2.0,45.73109,15543.2,-1357.914,77.839,-27142.314,2e-05,-0.00066,45.79303,242.538,,0.0,-0.00148,-0.00455,22.88085,25.99405,15543.2,242.538,242.643,0.00261684,45.79303,1.87,0.000234417,111055,111055,110942,2.25849e+17,0.194712
6.0,2.0,47.1011,15543.2,-1357.91,77.83915,-27142.3,-9e-05,-8e-05,47.17647,263.409,,0.0,-0.00145,-0.00459,22.88078,27.36406,15543.2,263.409,263.131,0.00508646,47.17647,1.925,0.000233733,110731,110731,110853,2.32491e+17,0.18444
6.0,2.0,48.46652,15543.3,-1357.915,77.838,-27142.313,0.00022,-0.00028,48.55518,284.065,,0.0,-0.00153,-0.00458,22.88074,28.72948,15543.3,284.065,284.025,0.00184859,48.55518,1.98,0.000233813,110768,110768,110766,2.39134e+17,0.185633
6.0,3.0,49.52352,15543.3,-1357.91,77.839,-27142.314,1e-05,-0.0003,49.613,285.327,,0.0,-0.00148,-0.00454,22.88084,29.78648,,,,,,2.035,0.000233861,110791,110791,110682,2.45776e+17,0.186357
6.0,3.0,49.92118,15543.4,-1357.91,77.84,-27142.314,-8e-05,0.00025,50.00219,272.168,,0.0,-0.00151,-0.00456,22.88091,30.18414,,,,,,2.09,0.000233216,110486,110486,110601,2.52419e+17,0.176668
6.0,3.0,50.04825,15543.4,-1357.915,77.839,-27142.3,-2e-05,0.00016,50.12321,262.768,,0.0,-0.00154,-0.00455,22.8809,30.31121,,,,,,2.145,0.000233333,110541,110541,110521,2.59062e+17,0.178432
6.0,3.0,50.07873,15543.5,-1357.91,77.839,-27142.314,-0.00052,-0.00066,50.15009,257.184,,0.0,-0.00154,-0.00452,22.88092,30.34169,,,,,,2.2,0.000233336,110542,110542,110444,2.65704e+17,0.178468
6.0,3.0,50.07803,15543.5,-1357.914,77.8391,-27142.316,-0.00016,6e-05,50.14739,254.062,,0.0,-0.00144,-0.00452,22.88083,30.34099,,,,,,2.255,0.000232685,110234,110234,110369,2.72347e+17,0.168689
6.0,3.0,50.06657,15543.6,-1357.915,77.84,-27142.316,-2e-05,-0.00047,50.13405,251.147,,0.0,-0.00151,-0.00456,22.88105,30.32953,,,,,,2.31,0.000232896,110334,110334,110296,2.78989e+17,0.171856
6.0,3.0,50.0552,15543.7,-1357.91,77.83915,-27142.315,0.00021,0.00027,50.12149,249.286,,0.0,-0.00149,-0.00457,22.8806,30.31816,,,,,,2.365,0.000232986,110377,110377,110225,2.85632e+17,0.17321
6.0,3.0,50.04624,15543.7,-1357.914,77.83999,-27142.316,0.0001,0.00026,50.11194,248.3768,,0.0,-0.00156,-0.00452,22.88077,30.3092,,,,,,2.42,0.000232314,110058,110058,110155,2.92275e+17,0.163108
6.0,3.0,50.03809,15543.8,-1357.91,77.839,-27142.3,-0.00016,0.0001,50.10281,246.8664,,0.0,-0.00155,-0.0045,22.88079,30.30105,,,,,,2.475,0.000232244,110025,110025,110087,2.98917e+17,0.162057
6.0,3.0,50.03159,15543.8,-1357.915,77.84,-27142.315,-0.00015,-0.00027,50.09561,245.78,,0.0,-0.00148,-0.00454,22.88091,30.29455,,,,,,2.53,0.000232631,110209,110209,110021,3.0556e+17,0.167882
6.0,3.0,50.02808,15543.9,-1357.91,77.839,-27142.315,9e-05,0.00024,50.09196,245.553,,0.0,-0.00148,-0.00454,22.8809,30.29104,,,,,,2.585,0.000231984,109902,109902,109956,3.12202e+17,0.158149
6.0,3.0,50.0246,15543.9,-1357.91,77.839,-27142.316,-0.00027,0.0001,50.08789,244.628,,0.0,-0.00153,-0.00455,22.88076,30.28756,,,,,,2.64,0.000231742,109787,109787,109893,3.18845e+17,0.154509
6.0,3.0,50.02124,15544,-1357.915,77.83921,-27142.3,3e-05,-0.0001,50.08396,243.753,,0.0,-0.00145,-0.00457,22.88096,30.2842,,,,,,2.695,0.000232209,110009,110009,109831,3.25488e+17,0.161539
6.0,3.0,50.02038,15544,-1357.915,77.839,-27142.317,-5e-05,0.00018,50.08314,243.8181,,0.0,-0.00146,-0.00454,22.88087,30.28334,,,,,,2.75,0.0002315947,109718,109718,109770,3.3213e+17,0.152303
6.0,3.0,50.01811,15544.1,-1357.915,77.84,-27142.316,0.00013,-0.00033,50.08031,242.938,,0.0,-0.00147,-0.00453,22.88089,30.28107,,,,,,2.805,0.000231373,109612,109612,109711,3.38773e+17,0.148966
6.0,3.0,50.01585,15544.1,-1357.915,77.84,-27142.315,-0.00024,-0.00012,50.07752,242.114,,0.0,-0.00151,-0.00452,22.88095,30.27881,,,,,,2.86,0.000231837,109832,109832,109652,3.45416e+17,0.15594
6.0,3.0,50.01574,15544.2,-1357.91,77.83985,-27142.3,0.00042,9e-05,50.07755,242.334,,0.0,-0.00148,-0.00454,22.88088,30.2787,,,,,,2.915,0.000231206,109534,109534,109595,3.52058e+17,0.146463
6.0,3.0,50.01471,15544.3,-1357.914,77.83999,-27142.316,-0.00017,0.00042,50.07613,241.733,,0.0,-0.00146,-0.0045,22.88097,30.27767,,,,,,2.97,0.000231031,109451,109451,109539,3.58701e+17,0.143831
6.0,3.0,50.01287,15544.3,-1357.914,77.84,-27142.3,-0.00021,0.00023,50.07375,240.889,,0.0,-0.0015,-0.00457,22.88098,30.27583,,,,,,3.025,0.000231491,109668,109668,109484,3.65343e+17,0.150738
6.0,3.0,50.01314,15544.4,-1357.914,77.83999,-27142.317,-0.00022,-0.00013,50.07422,241.2,,0.0,-0.00147,-0.00457,22.88092,30.2761,,,,,,3.08,0.000230863,109371,109371,109430,3.71986e+17,0.141308
6.0,3.0,50.01265,15544.4,-1357.915,77.84,-27142.318,1e-05,0.00024,50.07339,240.679,,0.0,-0.00147,-0.00455,22.88092,30.27561,,,,,,3.135,0.000230754,109319,109319,109377,3.78629e+17,0.139667
6.0,3.0,50.01125,15544.5,-1357.91,77.839,-27142.318,-0.00026,-3e-05,50.0716,240.068,,0.0,-0.00146,-0.00458,22.88095,30.27421,,,,,,3.19,0.00023114,109502,109502,109324,3.85271e+17,0.145469
6.0,3.0,50.01171,15544.5,-1357.91,77.83985,-27142.3,0.00027,-0.00019,50.07224,240.345,,0.0,-0.00149,-0.00457,22.88095,30.27467,,,,,,3.245,0.000230488,109193,109193,109273,3.91914e+17,0.135673
6.0,3.0,50.0108,15544.6,-1357.92,77.839,-27142.316,0.00012,-0.00012,50.07089,239.661,,0.0,-0.00149,-0.00454,22.88116,30.27376,,,,,,3.3,0.0002304209,109162,109162,109223,3.98556e+17,0.134663
6.0,3.0,50.00978,15544.6,-1357.92,77.83985,-27142.317,-0.00025,-0.00016,50.06957,239.191,,0.0,-0.00149,-0.00455,22.88095,30.27274,,,,,,3.355,0.00023082,109351,109351,109173,4.05199e+17,0.14066
6.0,3.0,50.01088,15544.7,-1357.91,77.839,-27142.317,0.00025,-0.00033,50.07088,239.5161,,0.0,-0.00152,-0.00452,22.88093,30.27384,,,,,,3.41,0.000230192,109053,109053,109124,4.11842e+17,0.131223
6.0,3.0,50.00953,15544.8,-1357.92,77.8399,-27142.3,0.00026,7e-05,50.06904,238.76,,0.0,-0.00148,-0.0045,22.88094,30.27249,,,,,,3.465,0.000230087,109003,109003,109076,4.18484e+17,0.129638
6.0,3.0,50.00889,15544.8,-1357.915,77.84,-27142.317,-0.00017,0.00035,50.06823,238.492,,0.0,-0.00157,-0.00455,22.88095,30.27185,,,,,,3.52,0.000230479,109189,109189,109028,4.25127e+17,0.135542
6.0,3.0,50.00958,15544.9,-1357.914,77.8391,-27142.3,-0.00011,0.00044,50.06911,238.794,,0.0,-0.0015,-0.00453,22.88102,30.27254,,,,,,3.575,0.000229971,108948,108948,108982,4.31769e+17,0.127906
6.0,3.0,50.00888,15544.9,-1357.91,77.839,-27142.319,6e-05,-0.00038,50.06799,238.141,,0.0,-0.0015,-0.00455,22.8813,30.27184,,,,,,3.63,0.0002297466,108842,108842,108936,4.38412e+17,0.12453
6.0,3.0,50.00816,15545,-1357.915,77.83985,-27142.3,-0.00025,-0.00044,50.06709,237.8598,,0.0,-0.00152,-0.00451,22.881,30.27112,,,,,,3.685,0.000230091,109005,109005,108890,4.45055e+17,0.129707
6.0,3.0,50.00891,15545,-1357.915,77.83999,-27142.32,3e-05,0.00044,50.068,238.11,,0.0,-0.00151,-0.00455,22.88101,30.27187,,,,,,3.74,0.00022977,108853,108853,108846,4.51697e+17,0.124879
6.0,3.0,50.00814,15545.1,-1357.914,77.8391,-27142.3,8e-05,-0.00013,50.06686,237.542,,0.0,-0.00142,-0.00453,22.88087,30.2711,,,,,,3.795,0.0002294858,108719,108719,108801,4.5834e+17,0.120611
6.0,3.0,50.00731,15545.1,-1357.915,77.839,-27142.318,6e-05,-0.00043,50.06581,237.182,,0.0,-0.00148,-0.00453,22.88077,30.27027,,,,,,3.85,0.000229845,108889,108889,108758,4.64982e+17,0.126016
6.0,3.0,50.00792,15545.2,-1357.92,77.8398,-27142.318,-9e-05,0.00054,50.06657,237.421,,0.0,-0.00145,-0.00457,22.88118,30.27088,,,,,,3.905,0.000229525,108737,108737,108715,4.71625e+17,0.121193
6.0,3.0,50.00754,15545.2,-1357.915,77.83999,-27142.318,-0.00022,-0.00015,50.06595,237.0471,,0.0,-0.00149,-0.00452,22.88104,30.2705,,,,,,3.96,0.00022912,108545,108545,108673,4.78268e+17,0.11511
6.0,3.0,50.0068,15545.3,-1357.915,77.84,-27142.319,0.0004,0.00019,50.06497,236.6703,,0.0,-0.00147,-0.00454,22.88092,30.26976,,,,,,4.015,0.000229557,108752,108752,108631,4.8491e+17,0.121684
6.0,3.0,50.00746,15545.4,-1357.915,77.83901,-27142.319,-0.00025,0.0002,50.06579,236.926,,0.0,-0.00147,-0.00456,22.88096,30.27042,,,,,,4.07,0.000229313,108637,108637,108590,4.91553e+17,0.118021
6.0,3.0,50.00698,15545.4,-1357.914,77.8399,-27142.319,-0.00012,-0.00042,50.06504,236.502,,0.0,-0.00145,-0.00454,22.88096,30.26994,,,,,,4.125,0.000228828,108407,108407,108549,4.98195e+17,0.110732
6.0,3.0,50.00634,15545.5,-1357.915,77.84,-27142.319,0.00033,-0.00041,50.0642,236.19,,0.0,-0.00148,-0.00456,22.88104,30.2693,,,,,,4.18,0.000229354,108656,108656,108509,5.04838e+17,0.11863
6.0,3.0,50.00729,15545.5,-1357.91,77.84,-27142.3,0.00029,0.00029,50.06536,236.527,,0.0,-0.00146,-0.00455,22.88082,30.27025,,,,,,4.235,0.000229062,108518,108518,108470,5.11481e+17,0.114235
6.0,3.0,50.00664,15545.6,-1357.91,77.838,-27142.319,-0.00044,0.00021,50.06436,235.969,,0.0,-0.00147,-0.00452,22.88104,30.2696,,,,,,4.29,0.000228526,108264,108264,108431,5.18123e+17,0.106184
6.0,3.0,50.00601,15545.6,-1357.915,77.83985,-27142.3,-0.0001,-0.00023,50.06353,235.678,,0.0,-0.00151,-0.00453,22.88106,30.26897,,,,,,4.345,0.0002290926,108532,108532,108392,5.24766e+17,0.114702
6.0,3.0,50.00655,15545.7,-1357.915,77.83999,-27142.319,0.00025,0.00044,50.06427,235.981,,0.0,-0.00152,-0.00457,22.88105,30.26951,,,,,,4.4,0.000228839,108412,108412,108354,5.31409e+17,0.110898
6.0,3.0,50.00662,15545.7,-1357.914,77.839,-27142.32,-0.00027,0.00025,50.06421,235.773,,0.0,-0.00148,-0.00459,22.88098,30.26958,,,,,,4.455,0.000228266,108141,108141,108316,5.38051e+17,0.102284
6.0,3.0,50.00551,15545.8,-1357.915,77.83999,-27142.319,-0.00013,-0.00031,50.06269,235.1459,,0.0,-0.0015,-0.0046,22.88099,30.26847,,,,,,4.51,0.00022888,108431,108431,108279,5.44694e+17,0.111503
6.0,3.0,50.00595,15545.9,-1357.92,77.8391,-27142.3,0.00045,0.0001,50.06334,235.474,,0.0,-0.00149,-0.00455,22.88114,30.26891,,,,,,4.565,0.000228591,108295,108295,108242,5.51336e+17,0.10717
6.0,3.0,50.00634,15545.9,-1357.915,77.839,-27142.319,-0.00026,-0.0,50.06371,235.442,,0.0,-0.00152,-0.00461,22.88105,30.2693,,,,,,4.62,0.000228034,108031,108031,108206,5.57979e+17,0.0987974
6.0,3.0,50.0053,15546,-1357.915,77.8382,-27142.32,-0.00026,-0.00042,50.06224,234.762,,0.0,-0.00151,-0.0046,22.88128,30.26826,,,,,,4.675,0.000228612,108305,108305,108170,5.64622e+17,0.107485
6.0,3.0,50.00571,15546,-1357.915,77.839,-27142.32,-0.00012,-0.0002,50.06281,235.012,,0.0,-0.0015,-0.00461,22.88123,30.26867,,,,,,4.73,0.000228333,108172,108172,108135,5.71264e+17,0.103284
6.0,3.0,50.00625,15546.1,-1357.92,77.839,-27142.3,-7e-05,-0.00024,50.06338,235.056,,0.0,-0.00156,-0.00459,22.88109,30.26921,,,,,,4.785,0.000227804,107922,107922,108100,5.77907e+17,0.0953311
6.0,3.0,50.00506,15546.1,-1357.915,77.839,-27142.319,-0.00051,-0.00024,50.06175,234.377,,0.0,-0.00148,-0.00459,22.88126,30.26802,,,,,,4.84,0.000228382,108195,108195,108065,5.84549e+17,0.104018
6.0,3.0,50.00557,15546.2,-1357.914,77.8382,-27142.3,-4e-05,-0.00013,50.06245,234.683,,0.0,-0.00144,-0.00455,22.88114,30.26853,,,,,,4.895,0.000228138,108080,108080,108031,5.91192e+17,0.100359
6.0,3.0,50.00594,15546.2,-1357.915,77.83901,-27142.32,0.00021,0.00038,50.06282,234.674,,0.0,-0.00146,-0.0046,22.88102,30.2689,,,,,,4.95,0.000227556,107804,107804,107997,5.97835e+17,0.0916092
6.0,3.0,50.00477,15546.3,-1357.915,77.8391,-27142.3,-0.00032,-0.00018,50.06117,233.93,,0.0,-0.00153,-0.00457,22.88116,30.26773,,,,,,5.005,0.0002280576,108042,108042,107964,6.04477e+17,0.0991484
6.0,3.0,50.00535,15546.3,-1357.914,77.839,-27142.321,0.00057,-0.0002,50.06202,234.335,,0.0,-0.00154,-0.00458,22.8811,30.26831,,,,,,5.06,0.000227907,107971,107971,107931,6.1112e+17,0.0968845
6.0,3.0,50.00559,15546.4,-1357.91,77.8399,-27142.32,0.00033,2e-05,50.06223,234.298,,0.0,-0.00145,-0.00456,22.8813,30.26855,,,,,,5.115,0.000227406,107733,107733,107898,6.17762e+17,0.0893523
6.0,3.0,50.00456,15546.5,-1357.91,77.839,-27142.32,-9e-05,0.00013,50.06079,233.656,,0.0,-0.0015,-0.00458,22.88115,30.26752,,,,,,5.17,0.000227801,107920,107920,107866,6.24405e+17,0.095286
6.0,3.0,50.00529,15546.5,-1357.91,77.839,-27142.32,-0.00031,9e-05,50.06177,234.053,,0.0,-0.00149,-0.00456,22.88101,30.26825,,,,,,5.225,0.000227674,107860,107860,107834,6.31048e+17,0.09339
6.0,3.0,50.00551,15546.6,-1357.914,77.839,-27142.32,2e-05,-0.00022,50.06196,233.996,,0.0,-0.00151,-0.00459,22.8812,30.26847,,,,,,5.28,0.00022722,107645,107645,107802,6.3769e+17,0.0865578
6.0,3.0,50.00444,15546.6,-1357.92,77.839,-27142.32,-6e-05,2e-05,50.06047,233.349,,0.0,-0.00148,-0.00454,22.88094,30.2674,,,,,,5.335,0.000227633,107841,107841,107771,6.44333e+17,0.0927728
6.0,3.0,50.00529,15546.7,-1357.915,77.83801,-27142.32,-0.00024,0.00034,50.06158,233.758,,0.0,-0.00151,-0.0046,22.88128,30.26825,,,,,,5.39,0.000227577,107814,107814,107740,6.50975e+17,0.0919311
6.0,3.0,50.00545,15546.7,-1357.915,77.839,-27142.32,0.00027,-0.00032,50.0617,233.689,,0.0,-0.00147,-0.00457,22.88115,30.26841,,,,,,5.445,0.000227035,107558,107558,107710,6.57618e+17,0.083785
6.0,3.0,50.00436,15546.8,-1357.92,77.84,-27142.32,1e-05,-0.00016,50.06019,233.0433,,0.0,-0.00147,-0.00456,22.88116,30.26732,,,,,,5.5,0.0002273782,107720,107720,107679,6.64261e+17,0.0889386
6.0,3.0,50.00477,15546.8,-1357.914,77.83985,-27142.3,-0.00011,0.0001,50.0608,233.349,,0.0,-0.00149,-0.00456,22.88115,30.26773,,,,,,5.555,0.000227343,107703,107703,107650,6.70903e+17,0.0884023
6.0,3.0,50.00518,15546.9,-1357.91,77.84,-27142.32,0.00014,0.0001,50.06125,233.407,,0.0,-0.00144,-0.00451,22.88113,30.26814,,,,,,5.61,0.0002268581,107474,107474,107620,6.77546e+17,0.0811227
6.0,3.0,50.00427,15547,-1357.91,77.841,-27142.3,0.00014,2e-05,50.05998,232.85,,0.0,-0.00146,-0.00451,22.88113,30.26723,,,,,,5.665,0.000227084,107581,107581,107591,6.84188e+17,0.0845137
6.0,3.0,50.0046,15547,-1357.915,77.839,-27142.3,-0.0002,0.00015,50.06039,232.994,,0.0,-0.00149,-0.00453,22.88134,30.26756,,,,,,5.72,0.000227141,107608,107608,107562,6.90831e+17,0.085379
6.0,3.0,50.00487,15547.1,-1357.91,77.839,-27142.3,0.00021,-0.00018,50.06071,233.059,,0.0,-0.00147,-0.00455,22.88121,30.26783,,,,,,5.775,0.000226709,107403,107403,107534,6.97474e+17,0.0788788
6.0,3.0,50.00418,15547.1,-1357.914,77.839,-27142.3,0.00014,-0.00031,50.05969,232.555,,0.0,-0.00146,-0.00454,22.88128,30.26714,,,,,,5.83,0.000227028,107554,107554,107505,7.04116e+17,0.083678
6.0,3.0,50.00425,15547.2,-1357.915,77.839,-27142.32,7e-05,0.00054,50.05984,232.663,,0.0,-0.00145,-0.0045,22.88118,30.26721,,,,,,5.885,0.000226906,107496,107496,107478,7.10759e+17,0.0818391
6.0,3.0,50.00491,15547.2,-1357.91,77.84,-27142.32,-0.00017,0.0001,50.06062,232.853,,0.0,-0.00148,-0.00452,22.88131,30.26787,,,,,,5.94,0.00022649,107299,107299,107450,7.17401e+17,0.0755925
6.0,3.0,50.00417,15547.3,-1357.91,77.8391,-27142.32,0.00021,-4e-05,50.05954,232.33,,0.0,-0.00148,-0.00457,22.88118,30.26713,,,,,,5.995,0.000226774,107434,107434,107423,7.24044e+17,0.0798542
6.0,3.0,50.00399,15547.3,-1357.92,77.84,-27142.32,-0.00019,0.00032,50.05937,232.329,,0.0,-0.00149,-0.00456,22.88119,30.26695,,,,,,6.05,0.000226832,107461,107461,107396,7.30687e+17,0.0807237
6.0,3.0,50.00488,15547.4,-1357.91,77.839,-27142.32,-0.00015,0.0003,50.06045,232.645,,0.0,-0.00148,-0.00457,22.88119,30.26784,,,,,,6.105,0.000226258,107189,107189,107369,7.37329e+17,0.072102
6.0,3.0,50.00413,15547.4,-1357.914,77.839,-27142.321,-7e-05,-0.00053,50.05931,232.029,,0.0,-0.00151,-0.00453,22.8812,30.26709,,,,,,6.16,0.000226672,107385,107385,107343,7.43972e+17,0.0783248
6.0,3.0,50.00391,15547.5,-1357.92,77.839,-27142.3,6e-05,-6e-05,50.05911,232.067,,0.0,-0.00151,-0.00453,22.88114,30.26687,,,,,,6.215,0.000226685,107391,107391,107317,7.50615e+17,0.0785161
6.0,3.0,50.00487,15547.6,-1357.915,77.839,-27142.3,8e-05,-6e-05,50.06032,232.457,,0.0,-0.0015,-0.00451,22.88142,30.26783,,,,,,6.27,0.000226083,107106,107106,107291,7.57257e+17,0.0694753
6.0,3.0,50.00393,15547.6,-1357.92,77.839,-27142.3,-0.00029,1e-05,50.05892,231.739,,0.0,-0.00147,-0.00456,22.88142,30.26689,,,,,,6.325,0.00022645,107280,107280,107265,7.639e+17,0.0749908
6.0,3.0,50.00365,15547.7,-1357.915,77.84,-27142.321,0.00012,-0.00025,50.05864,231.737,,0.0,-0.00157,-0.00456,22.88125,30.26661,,,,,,6.38,0.000226616,107359,107359,107240,7.70542e+17,0.077484
6.0,3.0,50.00496,15547.7,-1357.915,77.84,-27142.321,0.00014,0.00057,50.06027,232.234,,0.0,-0.00146,-0.00451,22.88133,30.26792,,,,,,6.435,0.000225896,107018,107018,107215,7.77185e+17,0.0666678
6.0,3.0,50.00374,15547.8,-1357.91,77.839,-27142.32,-0.00011,0.00014,50.05858,231.492,,0.0,-0.00148,-0.00451,22.88133,30.2667,,,,,,6.49,0.000226185,107155,107155,107190,7.83828e+17,0.0710002
6.0,3.0,50.00377,15547.8,-1357.915,77.8391,-27142.3,0.00024,7e-05,50.05865,231.571,,0.0,-0.00147,-0.00452,22.88124,30.26673,,,,,,6.545,0.000226423,107268,107268,107166,7.9047e+17,0.0745855
6.0,3.0,50.00488,15547.9,-1357.91,77.839,-27142.32,-1e-05,0.00026,50.06007,232.033,,0.0,-0.00151,-0.00454,22.88131,30.26784,,,,,,6.6,0.00022568,106916,106916,107142,7.97113e+17,0.0634181
6.0,3.0,50.00381,15547.9,-1357.91,77.8399,-27142.321,-0.00049,-0.00025,50.05851,231.28,,0.0,-0.00147,-0.00457,22.88121,30.26677,,,,,,6.655,0.00022596,107048,107048,107118,8.03755e+17,0.0676207
6.0,3.0,50.00376,15548,-1357.915,77.84,-27142.321,0.00031,-9e-05,50.05846,231.286,,0.0,-0.00147,-0.00454,22.88109,30.26672,,,,,,6.71,0.000226328,107223,107223,107094,8.10398e+17,0.0731613
6.0,3.0,50.00463,15548.1,-1357.91,77.84,-27142.3,3e-05,0.00025,50.05964,231.7685,,0.0,-0.00153,-0.00456,22.88129,30.26759,,,,,,6.765,0.000225695,106923,106923,107071,8.17041e+17,0.0636408
6.0,3.0,50.00351,15548.1,-1357.91,77.84,-27142.321,-0.00018,4e-05,50.05805,231.035,,0.0,-0.00148,-0.00456,22.88134,30.26647,,,,,,6.82,0.000225786,106966,106966,107048,8.23683e+17,0.0650149
6.0,3.0,50.00347,15548.2,-1357.91,77.839,-27142.3,8e-05,-0.00023,50.05803,231.067,,0.0,-0.00148,-0.00457,22.88146,30.26643,,,,,,6.875,0.00022608,107105,107105,107025,8.30326e+17,0.0694229
6.0,3.0,50.00461,15548.2,-1357.915,77.839,-27142.321,-9e-05,1e-05,50.0595,231.579,,0.0,-0.00145,-0.0046,22.88133,30.26757,,,,,,6.93,0.000225608,106881,106881,107002,8.36968e+17,0.0623367
6.0,3.0,50.00358,15548.3,-1357.91,77.839,-27142.32,-0.00019,-0.00019,50.05801,230.865,,0.0,-0.00144,-0.00458,22.88126,30.26654,,,,,,6.985,0.000225672,106912,106912,106980,8.43611e+17,0.0632958
6.0,3.0,50.00349,15548.3,-1357.91,77.839,-27142.321,-0.00015,-0.00041,50.05788,230.81,,0.0,-0.00147,-0.00456,22.88126,30.26645,,,,,,7.04,0.000226002,107068,107068,106958,8.50254e+17,0.0682522
6.0,3.0,50.00441,15548.4,-1357.915,77.83985,-27142.3,2e-05,0.00025,50.05906,231.22,,0.0,-0.00146,-0.00458,22.88135,30.26737,,,,,,7.095,0.000225495,106828,106828,106936,8.56896e+17,0.0606368
6.0,3.0,50.00356,15548.4,-1357.915,77.84,-27142.321,0.00021,-0.00033,50.05788,230.699,,0.0,-0.00152,-0.00452,22.88122,30.26652,,,,,,7.15,0.000225577,106867,106867,106914,8.63539e+17,0.0618641
6.0,3.0,50.00347,15548.5,-1357.92,77.8399,-27142.321,7e-05,-0.00026,50.05773,230.597,,0.0,-0.00149,-0.00454,22.88143,30.26643,,,,,,7.205,0.000225888,107014,107014,106892,8.70181e+17,0.0665377
6.0,3.0,50.00416,15548.5,-1357.92,77.84,-27142.321,0.00011,-7e-05,50.05868,231.012,,0.0,-0.00158,-0.00457,22.88142,30.26712,,,,,,7.26,0.000225406,106786,106786,106871,8.76824e+17,0.0593029
6.0,3.0,50.00357,15548.6,-1357.91,77.84,-27142.3,-0.00024,-0.00022,50.05777,230.504,,0.0,-0.00152,-0.00451,22.88146,30.26653,,,,,,7.315,0.000225402,106784,106784,106850,8.83467e+17,0.0592464
6.0,3.0,50.0033,15548.7,-1357.913,77.83801,-27142.322,5e-05,-0.00026,50.05741,230.368,,0.0,-0.00155,-0.00461,22.88144,30.26626,,,,,,7.37,0.000225747,106947,106947,106830,8.90109e+17,0.0644253
6.0,3.0,50.00437,15548.7,-1357.91,77.84,-27142.3,1e-05,0.00015,50.05875,230.787,,0.0,-0.00152,-0.0046,22.88131,30.26733,,,,,,7.425,0.000225278,106725,106725,106809,8.96752e+17,0.0573771
6.0,3.0,50.00366,15548.8,-1357.915,77.83901,-27142.323,4e-05,-0.00017,50.05772,230.295,,0.0,-0.0015,-0.00457,22.88119,30.26662,,,,,,7.48,0.000225056,106620,106620,106789,9.03394e+17,0.0540399
6.0,3.0,50.00317,15548.8,-1357.915,77.84,-27142.322,-0.00023,-4e-05,50.05713,230.136,,0.0,-0.00153,-0.0045,22.88149,30.26613,,,,,,7.535,0.000225617,106886,106886,106769,9.10037e+17,0.0624682
6.0,3.0,50.00403,15548.9,-1357.915,77.839,-27142.322,0.0003,0.0002,50.05826,230.557,,0.0,-0.00152,-0.00454,22.88132,30.26699,,,,,,7.59,0.000225238,106706,106706,106749,9.1668e+17,0.0567751
6.0,3.0,50.0037,15548.9,-1357.915,77.839,-27142.322,-3e-05,-0.00026,50.05768,230.177,,0.0,-0.00153,-0.00454,22.88135,30.26666,,,,,,7.645,0.000225126,106653,106653,106729,9.23322e+17,0.0550888
6.0,3.0,50.00329,15549,-1357.915,77.83901,-27142.323,0.00014,-0.00011,50.05714,229.959,,0.0,-0.00151,-0.00458,22.88144,30.26625,,,,,,7.7,0.0002254449,106804,106804,106710,9.29965e+17,0.0598855
6.0,3.0,50.00406,15549,-1357.915,77.84,-27142.3,0.0003,2e-05,50.05818,230.38,,0.0,-0.00156,-0.00455,22.8815,30.26702,,,,,,7.755,0.000225118,106649,106649,106690,9.36607e+17,0.0549724
6.0,3.0,50.0034,15549.1,-1357.91,77.83999,-27142.3,-0.00025,-0.00068,50.0572,229.885,,0.0,-0.00156,-0.00455,22.88145,30.26636,,,,,,7.81,0.000224833,106514,106514,106671,9.4325e+17,0.0506898
6.0,3.0,50.00317,15549.2,-1357.91,77.84,-27142.3,-0.00037,0.00018,50.05694,229.848,,0.0,-0.00149,-0.00455,22.88138,30.26613,,,,,,7.865,0.000225347,106758,106758,106652,9.49893e+17,0.0584086
6.0,3.0,50.00402,15549.2,-1357.91,77.84,-27142.321,0.00037,0.00019,50.058,230.178,,0.0,-0.00147,-0.0046,22.88146,30.26698,,,,,,7.92,0.000225054,106619,106619,106634,9.56535e+17,0.0540135
6.0,3.0,50.00365,15549.3,-1357.91,77.8408,-27142.3,3e-05,6e-05,50.05739,229.797,,0.0,-0.00149,-0.00462,22.88147,30.26661,,,,,,7.975,0.000224677,106440,106440,106615,9.63178e+17,0.0483495
6.0,3.0,50.00316,15549.3,-1357.91,77.83901,-27142.3,-3e-05,8e-05,50.05679,229.633,,0.0,-0.00153,-0.00458,22.88133,30.26611,,,,,,8.03,0.00022527,106721,106721,106597,9.69821e+17,0.0572626
6.0,3.0,50.00409,15549.4,-1357.91,77.84,-27142.3,4e-05,7e-05,50.058,230.062,,0.0,-0.00145,-0.00453,22.88149,30.26705,,,,,,8.085,0.000225014,106600,106600,106579,9.76463e+17,0.0534159
6.0,3.0,50.00334,15549.4,-1357.915,77.839,-27142.324,9e-05,-0.0004,50.05694,229.583,,0.0,-0.00152,-0.00456,22.88159,30.2663,,,,,,8.14,0.0002245683,106389,106389,106561,9.83106e+17,0.0467122
6.0,3.0,50.00291,15549.5,-1357.92,77.839,-27142.3,-0.0001,-0.00017,50.05638,229.374,,0.0,-0.00148,-0.00455,22.88156,30.26587,,,,,,8.195,0.0002251658,106672,106672,106544,9.89748e+17,0.0556913
6.0,3.0,50.00406,15549.5,-1357.915,77.84,-27142.322,-0.00024,8e-05,50.05791,229.967,,0.0,-0.00143,-0.00454,22.8814,30.26702,,,,,,8.25,0.000224896,106544,106544,106526,9.96391e+17,0.0516346
6.0,3.0,50.00354,15549.6,-1357.91,77.84,-27142.3,0.00026,0.00024,50.05709,229.501,,0.0,-0.00149,-0.00455,22.88144,30.2665,,,,,,8.305,0.0002244411,106329,106329,106509,1.00303e+18,0.0448007
6.0,3.0,50.00264,15549.6,-1357.915,77.84,-27142.324,0.0,-0.00013,50.05594,229.113,,0.0,-0.00149,-0.00452,22.88166,30.2656,,,,,,8.36,0.000225112,106646,106646,106492,1.00968e+18,0.054879
6.0,3.0,50.00388,15549.7,-1357.91,77.83915,-27142.322,-0.00014,0.00035,50.05761,229.782,,0.0,-0.00156,-0.00452,22.88153,30.26684,,,,,,8.415,0.000224774,106487,106487,106475,1.01632e+18,0.0498094
6.0,3.0,50.00351,15549.8,-1357.92,77.84,-27142.324,-0.00015,-0.00031,50.05696,229.346,,0.0,-0.00147,-0.00453,22.88133,30.26647,,,,,,8.47,0.000224396,106307,106307,106458,1.02296e+18,0.0441207
6.0,3.0,50.00277,15549.8,-1357.91,77.84,-27142.3,-0.0001,-0.00051,50.05597,228.946,,0.0,-0.00149,-0.00448,22.8815,30.26573,,,,,,8.525,0.0002249492,106569,106569,106442,1.0296e+18,0.0524363
6.0,3.0,50.00387,15549.9,-1357.91,77.83901,-27142.321,-4e-05,0.00043,50.05752,229.662,,0.0,-0.00148,-0.00451,22.88159,30.26683,,,,,,8.58,0.000224645,106425,106425,106425,1.03625e+18,0.0478593
6.0,3.0,50.00366,15549.9,-1357.91,77.83971,-27142.323,-7e-05,0.00039,50.0571,229.324,,0.0,-0.00149,-0.00452,22.88151,30.26662,,,,,,8.635,0.000224268,106246,106246,106409,1.04289e+18,0.0421961
6.0,3.0,50.00275,15550,-1357.914,77.83901,-27142.323,-0.00027,-0.00028,50.05587,228.833,,0.0,-0.00151,-0.00455,22.88161,30.26571,,,,,,8.69,0.000224882,106537,106537,106393,1.04953e+18,0.0514254
6.0,3.0,50.00359,15550,-1357.91,77.84,-27142.3,-8e-05,0.00034,50.05706,229.374,,0.0,-0.00152,-0.0046,22.88151,30.26655,,,,,,8.745,0.000224661,106433,106433,106377,1.05617e+18,0.0481009
6.0,3.0,50.00361,15550.1,-1357.916,77.84197,-27142.323,-0.00031,6e-05,50.05695,229.164,,0.0,-0.00155,-0.00456,22.88156,30.26657,,,,,,8.8,0.000224255,106240,106240,106362,1.06282e+18,0.0419976
6.0,3.0,50.00281,15550.1,-1357.92,77.8399,-27142.3,-0.00013,-0.00032,50.05585,228.711,,0.0,-0.00149,-0.00458,22.88155,30.26577,,,,,,8.855,0.000224738,106469,106469,106346,1.06946e+18,0.0492665
6.0,3.0,50.00354,15550.2,-1357.91,77.839,-27142.323,0.00032,5e-05,50.05688,229.177,,0.0,-0.00151,-0.00458,22.88161,30.2665,,,,,,8.91,0.000224624,106415,106415,106331,1.0761e+18,0.0475466
6.0,3.0,50.00359,15550.3,-1357.91,77.83915,-27142.3,-9e-05,0.00026,50.05684,229.021,,0.0,-0.0015,-0.00449,22.88148,30.26655,,,,,,8.965,0.000224205,106217,106217,106316,1.08274e+18,0.0412504
6.0,3.0,50.00268,15550.3,-1357.91,77.839,-27142.322,-0.00031,-0.00019,50.05562,228.551,,0.0,-0.00149,-0.00451,22.88163,30.26564,,,,,,9.02,0.000224759,106479,106479,106301,1.08939e+18,0.0495827
6.0,3.0,50.0035,15550.4,-1357.915,77.83985,-27142.3,0.00027,-9e-05,50.05675,229.032,,0.0,-0.00153,-0.0045,22.88154,30.26646,,,,,,9.075,0.000224534,106372,106372,106286,1.09603e+18,0.0461924
6.0,3.0,50.0034,15550.4,-1357.91,77.839,-27142.322,-0.00029,-0.00018,50.05653,228.853,,0.0,-0.00149,-0.00449,22.88165,30.26636,,,,,,9.13,0.0002241268,106180,106180,106271,1.10267e+18,0.0400775
6.0,3.0,50.00282,15550.5,-1357.91,77.84,-27142.323,0.00016,-6e-05,50.0557,228.449,,0.0,-0.00152,-0.00447,22.88165,30.26578,,,,,,9.185,0.000224551,106380,106380,106256,1.10932e+18,0.0464467
6.0,3.0,50.00337,15550.5,-1357.914,77.83901,-27142.322,0.00034,-6e-05,50.05645,228.772,,0.0,-0.0015,-0.00452,22.88154,30.26633,,,,,,9.24,0.000224559,106385,106385,106242,1.11596e+18,0.0465777
6.0,3.0,50.00342,15550.6,-1357.91,77.83971,-27142.322,3e-05,0.00027,50.05646,228.709,,0.0,-0.0015,-0.00454,22.88166,30.26638,,,,,,9.295,0.000224042,106139,106139,106228,1.1226e+18,0.0388015
6.0,3.0,50.00273,15550.6,-1357.915,77.83901,-27142.322,0.00028,0.00064,50.05555,228.355,,0.0,-0.0015,-0.00452,22.8816,30.26569,,,,,,9.35,0.000224333,106278,106278,106214,1.12924e+18,0.0431815
6.0,3.0,50.00328,15550.7,-1357.915,77.83915,-27142.3,6e-05,-0.00045,50.05633,228.714,,0.0,-0.00151,-0.00455,22.88157,30.26624,,,,,,9.405,0.000224494,106354,106354,106200,1.13589e+18,0.0456008
6.0,3.0,50.00323,15550.7,-1357.915,77.83901,-27142.323,0.00034,0.00017,50.05617,228.557,,0.0,-0.00151,-0.00452,22.88149,30.26618,,,,,,9.46,0.000223873,106059,106059,106186,1.14253e+18,0.0362605
6.0,3.0,50.00259,15550.8,-1357.91,77.8391,-27142.3,-0.00028,-0.00049,50.05525,228.128,,0.0,-0.0015,-0.00456,22.88168,30.26555,,,,,,,,,,,,
6.0,3.0,50.00324,15550.9,-1357.91,77.84,-27142.322,0.0004,0.00032,50.05621,228.593,,0.0,-0.00149,-0.00457,22.88162,30.2662,,,,,,,,,,,,
6.0,3.0,50.00328,15550.9,-1357.91,77.839,-27142.323,0.00031,9e-05,50.05621,228.537,,0.0,-0.00157,-0.00455,22.88167,30.26624,,,,,,,,,,,,
6.0,3.0,50.00282,15551,-1357.92,77.839,-27142.323,-0.0002,0.00046,50.05551,228.16,,0.0,-0.00154,-0.00458,22.88148,30.26578,,,,,,,,,,,,
6.0,3.0,50.00314,15551,-1357.915,77.8382,-27142.3,-0.00024,0.0,50.05598,228.399,,0.0,-0.0015,-0.00456,22.88168,30.2661,,,,,,,,,,,,
6.0,3.0,50.00363,15551.1,-1357.92,77.84,-27142.324,0.00027,-0.00012,50.05657,228.554,,0.0,-0.00146,-0.00455,22.88183,30.26659,,,,,,,,,,,,
6.0,3.0,50.0027,15551.1,-1357.915,77.83985,-27142.3,0.00043,0.00042,50.05531,228.043,,0.0,-0.00145,-0.00456,22.88173,30.26566,,,,,,,,,,,,
6.0,3.0,50.003,15551.2,-1357.91,77.83901,-27142.323,-0.00042,0.0001,50.05577,228.275,,0.0,-0.00145,-0.00456,22.88171,30.26596,,,,,,,,,,,,
6.0,3.0,50.00354,15551.2,-1357.91,77.83915,-27142.3,0.00032,0.00017,50.05646,228.523,,0.0,-0.00153,-0.00454,22.88153,30.2665,,,,,,,,,,,,
6.0,3.0,50.00269,15551.3,-1357.91,77.84,-27142.322,0.00025,-4e-05,50.05523,227.93,,0.0,-0.00152,-0.00464,22.88166,30.26565,,,,,,,,,,,,
6.0,3.0,50.00282,15551.4,-1357.92,77.83915,-27142.321,-0.00032,0.00028,50.05547,228.093,,0.0,-0.00151,-0.00459,22.88175,30.26578,,,,,,,,,,,,
6.0,3.0,50.00356,15551.4,-1357.91,77.84,-27142.321,0.00015,-0.00031,50.05641,228.41,,0.0,-0.00147,-0.00458,22.88164,30.26652,,,,,,,,,,,,
6.0,3.0,50.00287,15551.5,-1357.91,77.83985,-27142.3,0.00047,-0.00026,50.05536,227.849,,0.0,-0.00149,-0.00456,22.88172,30.26583,,,,,,,,,,,,
6.0,3.0,50.00299,15551.5,-1357.914,77.84,-27142.324,-0.00019,0.00037,50.05559,228.028,,0.0,-0.0015,-0.00457,22.88149,30.26595,,,,,,,,,,,,
6.0,3.0,50.00368,15551.6,-1357.914,77.839,-27142.3,0.00015,0.0003,50.05651,228.3948,,0.0,-0.00142,-0.00455,22.8816,30.26663,,,,,,,,,,,,
6.0,3.0,50.0026,15551.6,-1357.914,77.84098,-27142.322,1e-05,-0.00013,50.055,227.71,,0.0,-0.00144,-0.00454,22.8818,30.26556,,,,,,,,,,,,
6.0,3.0,50.00267,15551.7,-1357.915,77.83985,-27142.32,-7e-05,0.00014,50.05518,227.882,,0.0,-0.00148,-0.00456,22.88176,30.26563,,,,,,,,,,,,
6.0,3.0,50.00351,15551.7,-1357.92,77.839,-27142.323,0.00012,0.0003,50.0562,228.165,,0.0,-0.00149,-0.00462,22.88173,30.26647,,,,,,,,,,,,
6.0,3.0,50.00262,15551.8,-1357.914,77.84,-27142.3,-3e-05,-0.00055,50.05492,227.562,,0.0,-0.00152,-0.00455,22.88171,30.26558,,,,,,,,,,,,
6.0,3.0,50.0027,15551.8,-1357.915,77.839,-27142.322,0.00035,0.00059,50.05512,227.757,,0.0,-0.00149,-0.00454,22.88178,30.26565,,,,,,,,,,,,
6.0,3.0,50.00355,15551.9,-1357.91,77.839,-27142.3,-0.0,0.00057,50.05622,228.131,,0.0,-0.00153,-0.00455,22.88177,30.26651,,,,,,,,,,,,
6.0,3.0,50.00272,15552,-1357.915,77.83901,-27142.322,-9e-05,-0.00023,50.05501,227.542,,0.0,-0.00147,-0.00451,22.88175,30.26568,,,,,,,,,,,,
6.0,3.0,50.0027,15552,-1357.92,77.83985,-27142.322,5e-05,-0.00055,50.05512,227.75,,0.0,-0.00146,-0.00449,22.88178,30.26566,,,,,,,,,,,,
6.0,3.0,50.00352,15552.1,-1357.916,77.839,-27142.322,-0.00025,8e-05,50.05613,228.025,,0.0,-0.00146,-0.00452,22.88162,30.26648,,,,,,,,,,,,
6.0,3.0,50.00285,15552.1,-1357.91,77.8389,-27142.3,-0.0002,-0.0006,50.05513,227.518,,0.0,-0.00149,-0.00451,22.88176,30.26581,,,,,,,,,,,,
6.0,3.0,50.00282,15552.2,-1357.915,77.83999,-27142.322,8e-05,-0.00026,50.05512,227.563,,0.0,-0.00152,-0.0045,22.88167,30.26578,,,,,,,,,,,,
6.0,3.0,50.00346,15552.2,-1357.914,77.83915,-27142.322,9e-05,-6e-05,50.05601,227.937,,0.0,-0.00151,-0.00454,22.88191,30.26642,,,,,,,,,,,,
6.0,3.0,50.00276,15552.3,-1357.91,77.839,-27142.324,-0.00014,-5e-05,50.05498,227.431,,0.0,-0.00146,-0.0045,22.88176,30.26572,,,,,,,,,,,,
6.0,3.0,50.00262,15552.3,-1357.915,77.83915,-27142.3,0.0,-0.00024,50.05486,227.45,,0.0,-0.00143,-0.0046,22.88177,30.26558,,,,,,,,,,,,
6.0,3.0,50.00335,15552.4,-1357.91,77.839,-27142.323,3e-05,-0.0001,50.05582,227.833,,0.0,-0.0015,-0.00457,22.88163,30.26631,,,,,,,,,,,,
6.0,3.0,50.00284,15552.5,-1357.914,77.84,-27142.3,6e-05,0.00031,50.05504,227.3917,,0.0,-0.00148,-0.00462,22.88185,30.2658,,,,,,,,,,,,
6.0,3.0,50.00249,15552.5,-1357.92,77.84099,-27142.322,-9e-05,4e-05,50.05463,227.303,,0.0,-0.00152,-0.00458,22.88194,30.26545,,,,,,,,,,,,
6.0,3.0,50.00316,15552.6,-1357.91,77.83985,-27142.3,0.00018,0.00029,50.05556,227.719,,0.0,-0.00153,-0.00459,22.88196,30.26612,,,,,,,,,,,,
6.0,3.0,50.00276,15552.6,-1357.915,77.839,-27142.321,-0.00023,-6e-05,50.05495,227.38,,0.0,-0.0015,-0.00458,22.88174,30.26572,,,,,,,,,,,,
6.0,3.0,50.0025,15552.7,-1357.915,77.839,-27142.3,2e-05,-0.00042,50.05458,227.2253,,0.0,-0.00153,-0.00457,22.88182,30.26546,,,,,,,,,,,,
6.0,3.0,50.00314,15552.7,-1357.915,77.839,-27142.322,6e-05,-0.00065,50.05553,227.689,,0.0,-0.00153,-0.00459,22.88183,30.2661,,,,,,,,,,,,
6.0,3.0,50.00278,15552.8,-1357.91,77.839,-27142.322,0.00012,-0.00027,50.05489,227.2588,,0.0,-0.0015,-0.00461,22.88192,30.26574,,,,,,,,,,,,
6.0,3.0,50.00235,15552.8,-1357.915,77.839,-27142.323,6e-05,3e-05,50.0544,227.1711,,0.0,-0.00149,-0.0046,22.88192,30.26531,,,,,,,,,,,,
6.0,3.0,50.00327,15552.9,-1357.915,77.839,-27142.322,0.0001,0.00014,50.0556,227.611,,0.0,-0.00146,-0.00461,22.88186,30.26623,,,,,,,,,,,,
6.0,3.0,50.00249,15552.9,-1357.915,77.84,-27142.3,7e-05,0.0002,50.0545,227.107,,0.0,-0.00157,-0.00461,22.88173,30.26545,,,,,,,,,,,,
6.0,3.0,50.00239,15553,-1357.915,77.84,-27142.3,-9e-05,-0.00023,50.0544,227.097,,0.0,-0.00148,-0.00459,22.8819,30.26535,,,,,,,,,,,,
6.0,3.0,50.00337,15553.1,-1357.915,77.83901,-27142.3,0.00021,-0.00021,50.05567,227.554,,0.0,-0.00147,-0.00458,22.88185,30.26633,,,,,,,,,,,,
6.0,3.0,50.00262,15553.1,-1357.914,77.8391,-27142.3,-0.00022,-0.00029,50.05466,227.142,,0.0,-0.00146,-0.00456,22.88211,30.26558,,,,,,,,,,,,
6.0,3.0,50.00265,15553.2,-1357.915,77.839,-27142.323,-0.00016,-2e-05,50.05463,227.056,,0.0,-0.00149,-0.00458,22.88197,30.26561,,,,,,,,,,,,
6.0,3.0,50.00366,15553.2,-1357.915,77.83915,-27142.3,0.00013,0.00029,50.05599,227.603,,0.0,-0.00145,-0.00457,22.88201,30.26662,,,,,,,,,,,,
6.0,3.0,50.00285,15553.3,-1357.915,77.839,-27142.322,0.0001,0.00032,50.05481,227.0277,,0.0,-0.00149,-0.00456,22.88191,30.26581,,,,,,,,,,,,
6.0,4.0,49.68937,15553.3,-1357.91,77.8381,-27142.323,-0.00028,0.00037,49.72553,202.475,,0.0,-0.00148,-0.00458,22.88187,29.95233,,,,,,,,,,,,
6.0,4.0,48.86989,15553.4,-1357.914,77.839,-27142.322,0.00039,0.00072,48.87909,160.578,,0.0,-0.00147,-0.00459,22.88204,29.13285,,,,,,,,,,,,
6.0,4.0,47.73448,15553.4,-1357.91,77.839,-27142.3,-0.0006,-0.0001,47.71683,118.87,,0.0,-0.00146,-0.00456,22.88178,27.99744,,,,,,,,,,,,
6.0,4.0,46.4229,15553.5,-1357.915,77.83802,-27142.321,5e-05,-9e-05,46.385,87.39381,,0.0,-0.00148,-0.00456,22.8817,26.68586,,,,,,,,,,,,
6.0,4.0,45.02632,15553.6,-1357.92,77.83915,-27142.3,0.00036,0.00019,44.9759,67.94412,,0.0,-0.00149,-0.00457,22.8821,25.28928,,,,,,,,,,,,
6.0,4.0,43.59292,15553.6,-1357.91,77.84,-27142.321,6e-05,-3e-05,43.53464,55.72504,,0.0,-0.00151,-0.00459,22.882,23.85588,,,,,,,,,,,,
6.0,4.0,42.15288,15553.7,-1357.914,77.839,-27142.3,0.0002,0.00019,42.08955,47.86245,,0.0,-0.00148,-0.00453,22.88197,22.41584,,,,,,,,,,,,
6.0,4.0,40.71705,15553.7,-1357.91,77.839,-27142.322,0.00036,0.00039,40.64985,41.85975,,0.0,-0.00151,-0.0046,22.88187,20.98001,,,,,,,,,,,,
6.0,4.0,39.28628,15553.8,-1357.92,77.839,-27142.321,9e-05,8e-05,39.21514,35.73274,,0.0,-0.00147,-0.00457,22.88189,19.54924,,,,,,,,,,,,
6.0,4.0,37.86111,15553.8,-1357.915,77.84,-27142.322,-0.00016,0.00064,37.78665,30.57703,,0.0,-0.0015,-0.00455,22.88189,18.12407,,,,,,,,,,,,
6.0,4.0,36.44358,15553.9,-1357.91,77.83915,-27142.321,6e-05,0.00077,36.36611,25.90801,,0.0,-0.00148,-0.00455,22.88197,16.70654,,,,,,,,,,,,
6.0,4.0,35.0285,15553.9,-1357.914,77.84,-27142.32,-0.00034,5e-05,34.94777,20.83325,,0.0,-0.00147,-0.00459,22.88192,15.29146,,,,,,,,,,,,
6.0,4.0,33.61799,15554,-1357.91,77.84,-27142.3,0.00014,8e-05,33.53414,15.9886,,0.0,-0.00147,-0.00461,22.88213,13.88095,,,,,,,,,,,,
6.0,4.0,32.21152,15554,-1357.914,77.83901,-27142.321,-0.00015,0.00045,32.12485,11.61611,,0.0,-0.00147,-0.00461,22.88182,12.47448,,,,,,,,,,,,
6.0,4.0,30.80597,15554.1,-1357.91,77.84,-27142.3,3e-05,0.00032,30.71648,7.23028,,0.0,-0.00147,-0.00451,22.88222,11.06893,,,,,,,,,,,,
6.0,4.0,29.40243,15554.2,-1357.914,77.84001,-27142.322,0.00019,4e-05,29.31014,2.8678,,0.0,-0.00152,-0.00456,22.88196,9.66539,,,,,,,,,,,,
6.0,4.0,28.00256,15554.2,-1357.915,77.84,-27142.321,-4e-05,0.00028,27.90799,-0.67253,,0.0,-0.00147,-0.00457,22.88196,8.26552,,,,,,,,,,,,
6.0,4.0,26.60109,15554.3,-1357.915,77.83901,-27142.322,-0.0002,0.00025,26.50629,-1.03093,,0.0,-0.00149,-0.00457,22.88205,6.86405,,,,,,,,,,,,
6.0,4.0,25.20247,15554.3,-1357.915,77.83985,-27142.323,-0.00016,-0.00027,25.10759,-1.14209,,0.0,-0.00153,-0.00454,22.88209,5.46543,,,,,,,,,,,,
6.0,4.0,23.80622,15554.4,-1357.91,77.84,-27142.321,0.00012,0.00026,23.71125,-1.29079,,0.0,-0.00152,-0.00455,22.88182,4.06918,,,,,,,,,,,,
6.0,4.0,22.41052,15554.4,-1357.91,77.83985,-27142.322,-0.00023,-4e-05,22.31545,-1.44898,,0.0,-0.00153,-0.00456,22.88207,2.67348,,,,,,,,,,,,
6.0,4.0,21.01579,15554.5,-1357.914,77.839,-27142.322,2e-05,0.00014,20.92064,-1.5787,,0.0,-0.00151,-0.00457,22.88201,1.27875,,,,,,,,,,,,
6.0,4.0,19.62379,15554.5,-1357.915,77.83915,-27142.321,7e-05,0.00049,19.52854,-1.71504,,0.0,-0.00152,-0.00456,22.88211,-0.11326,,,,,,,,,,,,
6.0,4.0,18.23037,15554.6,-1357.91,77.84,-27142.322,2e-05,0.00039,18.13502,-1.87524,,0.0,-0.00151,-0.00458,22.88207,-1.50667,,,,,,,,,,,,
6.0,4.0,16.83813,15554.7,-1357.915,77.83985,-27142.3,-0.00022,3e-05,16.74269,-2.02223,,0.0,-0.00149,-0.00452,22.88208,-2.89891,,,,,,,,,,,,
6.0,4.0,15.44881,15554.7,-1357.914,77.84,-27142.322,-8e-05,0.00023,15.35328,-2.15184,,0.0,-0.00152,-0.0046,22.88205,-4.28823,,,,,,,,,,,,
6.0,4.0,14.05879,15554.8,-1357.91,77.84,-27142.322,-0.00011,0.00035,13.96316,-2.31389,,0.0,-0.00151,-0.00458,22.88214,-5.67825,,,,,,,,,,,,
6.0,4.0,12.66898,15554.8,-1357.914,77.83998,-27142.322,-0.00017,-0.00039,12.57326,-2.45848,,0.0,-0.00149,-0.00455,22.88199,-7.06806,,,,,,,,,,,,
6.0,4.0,11.28187,15554.9,-1357.91,77.84071,-27142.3,0.00038,0.00048,11.18607,-2.58393,,0.0,-0.00148,-0.00449,22.88217,-8.45517,,,,,,,,,,,,
6.0,4.0,9.89428,15554.9,-1357.915,77.83901,-27142.323,0.00011,0.00027,9.79838,-2.74049,,0.0,-0.00149,-0.00457,22.88195,-9.84276,,,,,,,,,,,,
6.0,4.0,8.50753,15555,-1357.914,77.83985,-27142.3,-0.00017,0.00032,8.41153,-2.89717,,0.0,-0.0015,-0.00453,22.88195,-11.22951,,,,,,,,,,,,
6.0,4.0,7.12356,15555,-1357.914,77.839,-27142.321,0.00031,0.00056,7.02748,-3.01885,,0.0,-0.00152,-0.00456,22.8819,-12.61348,,,,,,,,,,,,
6.0,4.0,5.7393,15555.1,-1357.92,77.83921,-27142.321,-0.00031,0.00038,5.64312,-3.16851,,0.0,-0.00144,-0.00455,22.88203,-13.99774,,,,,,,,,,,,
6.0,4.0,4.35573,15555.1,-1357.915,77.83999,-27142.323,-5e-05,0.00029,4.25945,-3.31508,,0.0,-0.00147,-0.00454,22.88211,-15.38131,,,,,,,,,,,,
6.0,4.0,2.97635,15555.2,-1357.91,77.83985,-27142.322,4e-05,0.00064,2.88001,-3.43124,,0.0,-0.00144,-0.00455,22.88193,-16.76069,,,,,,,,,,,,
6.0,4.0,1.59705,15555.3,-1357.915,77.84,-27142.322,-0.0,0.00033,1.5006,-3.59507,,0.0,-0.0015,-0.00454,22.88212,-18.13999,,,,,,,,,,,,
6.0,4.0,0.42186,15555.3,-1357.91,77.8399,-27142.322,-0.00031,0.00041,0.32533,-3.70951,,0.0,-0.00152,-0.00449,22.88222,-19.31518,,,,,,,,,,,,
6.0,4.0,0.21084,15555.3,-1357.914,77.83829,-27142.3,0.00032,0.0002,0.11431,-3.7223,,0.0,-0.00148,-0.00451,22.88207,-19.5262,,,,,,,,,,,,